Packet number,Gyroscope X (deg/s),Gyroscope Y (deg/s),Gyroscope Z (deg/s),Accelerometer X (g),Accelerometer Y (g),Accelerometer Z (g),Magnetometer X (G),Magnetometer Y (G),Magnetometer Z (G)
1,-1.53435,0.12977,0.48855,-1.01587,0.05859,-0.13647,0.00,0.00,0.00
2,-1.46565,-0.10687,0.38168,-1.01538,0.06421,-0.13354,0.00,0.00,0.00
3,-1.17557,-0.03817,0.03817,-1.01563,0.06812,-0.13770,0.00,0.00,0.00
4,-1.38168,-0.30534,-0.06107,-1.02222,0.06445,-0.13574,0.00,0.00,0.00
5,-1.00763,-0.16794,-0.26718,-1.01929,0.06079,-0.13452,0.00,0.00,0.00
6,-1.26718,-0.31298,-0.16794,-1.01465,0.06641,-0.13159,0.00,0.00,0.00
7,-1.06870,-0.61832,-0.03053,-1.02661,0.06421,-0.13208,0.00,0.00,0.00
8,-0.96183,-0.29008,-0.19847,-1.01465,0.06226,-0.13428,0.00,0.00,0.00
9,-0.92366,-0.21374,-0.31298,-1.01733,0.06128,-0.12695,0.00,0.00,0.00
10,-1.00763,-0.29771,-0.28244,-1.02295,0.05688,-0.13721,0.00,0.00,0.00
11,-0.77099,-0.04580,-0.25191,-1.02026,0.06348,-0.12671,0.00,0.00,0.00
12,-0.67939,0.17557,-0.34351,-1.01392,0.06055,-0.13965,0.00,0.00,0.00
13,-0.60305,-0.09924,-0.30534,-1.01782,0.05615,-0.13721,0.00,0.00,0.00
14,-0.51908,-0.29008,-0.24427,-1.01636,0.06152,-0.14136,0.00,0.00,0.00
15,0.02290,-0.30534,-0.20611,-1.01367,0.06616,-0.12842,0.00,0.00,0.00
16,-0.09924,-0.15267,-0.32824,-1.01709,0.05688,-0.13208,0.00,0.00,0.00
17,-0.23664,-0.01527,-0.34351,-1.01514,0.06128,-0.13770,0.00,0.00,0.00
18,-0.12977,-0.38931,-0.33588,-1.01758,0.06274,-0.13330,0.00,0.00,0.00
19,-0.03817,-0.36641,-0.29008,-1.01489,0.06030,-0.13745,0.00,0.00,0.00
20,0.09924,-0.33588,-0.42748,-1.01807,0.06250,-0.13403,0.00,0.00,0.00
21,-0.06870,-0.29771,-0.25954,-1.01685,0.06592,-0.13794,0.00,0.00,0.00
22,0.03053,-0.40458,-0.40458,-1.01660,0.06152,-0.13403,0.00,0.00,0.00
23,-0.03817,-0.35878,-0.34351,-1.02612,0.06543,-0.13354,0.00,0.00,0.00
24,0.19847,-0.42748,-0.27481,-1.01489,0.06543,-0.13525,0.00,0.00,0.00
25,0.09160,-0.45802,-0.39695,-1.01709,0.05981,-0.13672,0.00,0.00,0.00
26,0.27481,-0.60305,-0.12977,-1.02026,0.05981,-0.12256,0.00,0.00,0.00
27,0.29008,-0.54962,-0.24427,-1.01685,0.06030,-0.13599,0.00,0.00,0.00
28,0.06870,-0.36641,-0.35878,-1.01978,0.06055,-0.12769,0.00,0.00,0.00
29,-0.12214,-0.47328,-0.24427,-1.01465,0.06348,-0.12817,0.00,0.00,0.00
30,-0.06107,-0.35878,-0.18321,-1.01416,0.06641,-0.12866,0.00,0.00,0.00
31,0.02290,-0.29008,-0.48092,-1.01953,0.05371,-0.12354,0.00,0.00,0.00
32,0.24427,-0.35878,-0.43511,-1.01514,0.06567,-0.13354,0.00,0.00,0.00
33,0.19084,-0.29008,-0.39695,-1.01758,0.05981,-0.14087,0.00,0.00,0.00
34,0.02290,-0.17557,-0.60305,-1.01953,0.06152,-0.13403,0.00,0.00,0.00
35,0.12214,-0.53435,-0.70229,-1.01196,0.06567,-0.12573,0.00,0.00,0.00
36,0.16031,-0.19084,-0.81679,-1.02026,0.06152,-0.13574,0.00,0.00,0.00
37,0.08397,-0.33588,-0.71756,-1.02515,0.06104,-0.13184,0.00,0.00,0.00
38,0.33588,-0.21374,-0.68702,-1.02026,0.06030,-0.13403,0.00,0.00,0.00
39,0.12214,-0.09924,-1.02290,-1.01855,0.06738,-0.12109,0.00,0.00,0.00
40,-0.17557,-0.06107,-0.83969,-1.01294,0.06006,-0.12671,0.00,0.00,0.00
41,0.19084,-0.03053,-0.96947,-1.01489,0.05737,-0.12720,0.00,0.00,0.00
42,0.24427,0.00763,-0.74809,-1.01733,0.05811,-0.12866,0.00,0.00,0.00
43,0.39695,-0.04580,-0.63359,-1.02124,0.06128,-0.13550,0.00,0.00,0.00
44,0.39695,-0.09160,-0.52672,-1.01489,0.05981,-0.13501,0.00,0.00,0.00
45,0.51145,-0.11450,-0.54962,-1.01245,0.06274,-0.13672,0.00,0.00,0.00
46,0.38168,-0.26718,-0.59542,-1.01709,0.05859,-0.14185,0.00,0.00,0.00
47,0.28244,-0.00763,-0.49618,-1.02173,0.06519,-0.12329,0.00,0.00,0.00
48,0.45802,-0.04580,-0.48092,-1.01416,0.05884,-0.13696,0.00,0.00,0.00
49,0.20611,0.00000,-0.45038,-1.01099,0.05737,-0.12500,0.00,0.00,0.00
50,0.33588,-0.07634,-0.19847,-1.01587,0.06543,-0.13672,0.00,0.00,0.00
51,0.50382,0.14504,-0.32824,-1.01782,0.06641,-0.12500,0.00,0.00,0.00
52,0.29008,-0.25954,-0.44275,-1.01343,0.06152,-0.13721,0.00,0.00,0.00
53,0.35878,0.06107,-0.35115,-1.01978,0.05933,-0.13794,0.00,0.00,0.00
54,0.43511,-0.03053,-0.23664,-1.01587,0.06030,-0.13184,0.00,0.00,0.00
55,0.56489,0.00000,-0.18321,-1.01807,0.05322,-0.13062,0.00,0.00,0.00
56,0.25954,0.22137,-0.25191,-1.01392,0.05713,-0.13013,0.00,0.00,0.00
57,0.19084,-0.03053,-0.17557,-1.01367,0.05884,-0.12988,0.00,0.00,0.00
58,0.19847,0.25191,-0.26718,-1.01318,0.06470,-0.13550,0.00,0.00,0.00
59,0.25191,0.18321,-0.14504,-1.01465,0.05835,-0.12573,0.00,0.00,0.00
60,0.06870,0.07634,-0.27481,-1.01440,0.06250,-0.13403,0.00,0.00,0.00
61,0.06870,0.06870,-0.38931,-1.01807,0.06152,-0.13599,0.00,0.00,0.00
62,-0.03817,0.54962,-0.21374,-1.02075,0.06226,-0.13672,0.00,0.00,0.00
63,0.14504,0.05344,-0.40458,-1.02173,0.06543,-0.14038,0.00,0.00,0.00
64,-0.03817,0.06107,-0.30534,-1.00757,0.06055,-0.12817,0.00,0.00,0.00
65,0.11450,0.09924,-0.32824,-1.01685,0.06396,-0.13647,0.00,0.00,0.00
66,-0.12214,0.27481,-0.29771,-1.01440,0.06250,-0.13208,0.00,0.00,0.00
67,-0.01527,0.35878,-0.27481,-1.02466,0.06348,-0.12915,0.00,0.00,0.00
68,-0.03817,0.25191,-0.12214,-1.01563,0.05762,-0.12500,0.00,0.00,0.00
69,-0.20611,0.22901,-0.37405,-1.02661,0.05884,-0.13062,0.00,0.00,0.00
70,-0.28244,0.22137,-0.25191,-1.01392,0.06030,-0.13013,0.00,0.00,0.00
71,-0.35878,0.20611,-0.16031,-1.01929,0.05444,-0.13940,0.00,0.00,0.00
72,-0.38168,0.26718,-0.20611,-1.01294,0.05908,-0.13672,0.00,0.00,0.00
73,-0.16794,0.32061,-0.32061,-1.01929,0.05981,-0.13428,0.00,0.00,0.00
74,-0.24427,0.24427,-0.19847,-1.02271,0.06152,-0.12939,0.00,0.00,0.00
75,-0.19847,0.41985,-0.15267,-1.01367,0.05835,-0.14185,0.00,0.00,0.00
76,-0.18321,0.48092,-0.33588,-1.01489,0.05933,-0.13501,0.00,0.00,0.00
77,-0.25954,0.19084,-0.38931,-1.02026,0.06128,-0.13208,0.00,0.00,0.00
78,-0.14504,0.45802,-0.51908,-1.01904,0.06543,-0.13452,0.00,0.00,0.00
79,-0.47328,0.44275,-0.51908,-1.01416,0.06323,-0.13867,0.00,0.00,0.00
80,-0.25191,0.30534,-0.46565,-1.01270,0.05981,-0.13281,0.00,0.00,0.00
81,-0.13740,0.16031,-0.61832,-1.01538,0.06421,-0.13379,0.00,0.00,0.00
82,-0.46565,0.35878,-0.64885,-1.01489,0.05518,-0.14136,0.00,0.00,0.00
83,-0.29008,0.39695,-0.44275,-1.01318,0.06079,-0.13721,0.00,0.00,0.00
84,-0.47328,0.24427,-0.67176,-1.01831,0.05737,-0.13354,0.00,0.00,0.00
85,-0.58779,0.32061,-0.56489,-1.01855,0.06104,-0.13159,0.00,0.00,0.00
86,-0.66412,0.34351,-0.53435,-1.01294,0.05566,-0.13403,0.00,0.00,0.00
87,-0.42748,0.32061,-0.51145,-1.01953,0.05762,-0.12939,0.00,0.00,0.00
88,-0.54198,0.09924,-0.59542,-1.01855,0.05933,-0.13013,0.00,0.00,0.00
89,-0.66412,0.41985,-0.50382,-1.01855,0.06030,-0.13354,0.00,0.00,0.00
90,-0.54198,0.14504,-0.54198,-1.02148,0.05981,-0.13037,0.00,0.00,0.00
91,-0.65649,0.35878,-0.72519,-1.02051,0.06299,-0.13550,0.00,0.00,0.00
92,-0.59542,0.12214,-0.52672,-1.01196,0.05811,-0.13696,0.00,0.00,0.00
93,-0.12977,0.26718,-0.69466,-1.02026,0.05591,-0.14307,0.00,0.00,0.00
94,-0.37405,0.05344,-0.58779,-1.01880,0.05518,-0.13306,0.00,0.00,0.00
95,-0.32824,0.41221,-0.54198,-1.02173,0.06616,-0.13135,0.00,0.00,0.00
96,-0.45802,0.16794,-0.70229,-1.01855,0.06152,-0.12427,0.00,0.00,0.00
97,-0.23664,0.06870,-0.76336,-1.01660,0.05640,-0.11963,0.00,0.00,0.00
98,-0.29008,0.38168,-0.73282,-1.01733,0.06494,-0.12891,0.00,0.00,0.00
99,-0.15267,0.16794,-0.54198,-1.01733,0.05957,-0.13892,0.00,0.00,0.00
100,-0.22137,0.06870,-0.54962,-1.01440,0.05420,-0.12939,0.00,0.00,0.00
101,-0.32824,0.18321,-0.60305,-1.01538,0.06006,-0.13135,0.00,0.00,0.00
102,-0.13740,0.11450,-0.58779,-1.01733,0.05615,-0.13525,0.00,0.00,0.00
103,-0.06870,0.22137,-0.60305,-1.02100,0.05811,-0.13354,0.00,0.00,0.00
104,-0.32824,0.10687,-0.82443,-1.00879,0.05615,-0.13672,0.00,0.00,0.00
105,-0.12214,0.00000,-0.70992,-1.01416,0.06152,-0.13477,0.00,0.00,0.00
106,-0.06870,0.12977,-0.84733,-1.01807,0.05859,-0.12500,0.00,0.00,0.00
107,-0.09924,0.07634,-0.87023,-1.01099,0.05957,-0.13330,0.00,0.00,0.00
108,-0.37405,-0.09160,-0.85496,-1.02246,0.06030,-0.13037,0.00,0.00,0.00
109,-0.25191,-0.00763,-0.53435,-1.01587,0.05933,-0.13452,0.00,0.00,0.00
110,-0.12214,-0.00763,-0.83206,-1.01587,0.05762,-0.13232,0.00,0.00,0.00
111,-0.16794,0.15267,-0.95420,-1.02173,0.05811,-0.14014,0.00,0.00,0.00
112,-0.12977,0.06870,-0.58015,-1.01440,0.05713,-0.13159,0.00,0.00,0.00
113,-0.34351,-0.04580,-0.80916,-1.02026,0.05469,-0.14233,0.00,0.00,0.00
114,-0.16031,-0.03817,-0.71756,-1.01782,0.05493,-0.12817,0.00,0.00,0.00
115,-0.13740,-0.09160,-0.83969,-1.01587,0.05688,-0.12646,0.00,0.00,0.00
116,0.02290,0.09160,-0.67176,-1.01709,0.05298,-0.14038,0.00,0.00,0.00
117,-0.04580,0.16031,-0.64122,-1.01978,0.05859,-0.12793,0.00,0.00,0.00
118,-0.21374,0.10687,-0.53435,-1.01636,0.05151,-0.13525,0.00,0.00,0.00
119,-0.12214,-0.01527,-0.39695,-1.01880,0.05444,-0.13696,0.00,0.00,0.00
120,-0.23664,0.11450,-0.76336,-1.01587,0.05249,-0.13843,0.00,0.00,0.00
121,0.09924,0.00763,-0.73282,-1.01880,0.06470,-0.13379,0.00,0.00,0.00
122,0.03053,-0.00763,-0.53435,-1.01294,0.05762,-0.12598,0.00,0.00,0.00
123,-0.04580,-0.18321,-0.42748,-1.01587,0.05762,-0.12866,0.00,0.00,0.00
124,-0.09160,0.02290,-0.45038,-1.01685,0.05249,-0.13037,0.00,0.00,0.00
125,0.02290,0.04580,-0.43511,-1.01904,0.05420,-0.13330,0.00,0.00,0.00
126,0.16794,0.06107,-0.36641,-1.01978,0.05933,-0.12939,0.00,0.00,0.00
127,0.20611,0.11450,-0.35878,-1.02002,0.05591,-0.13062,0.00,0.00,0.00
128,0.10687,0.17557,-0.44275,-1.02124,0.05469,-0.13306,0.00,0.00,0.00
129,0.12977,0.11450,-0.56489,-1.01416,0.05688,-0.13892,0.00,0.00,0.00
130,0.21374,0.06870,-0.64885,-1.01953,0.05957,-0.13159,0.00,0.00,0.00
131,0.08397,0.04580,-0.35115,-1.01685,0.05591,-0.13574,0.00,0.00,0.00
132,-0.02290,-0.10687,-0.27481,-1.02466,0.05127,-0.12988,0.00,0.00,0.00
133,0.03053,-0.05344,-0.41985,-1.02075,0.05811,-0.13232,0.00,0.00,0.00
134,0.00000,0.00763,-0.39695,-1.01489,0.05151,-0.13403,0.00,0.00,0.00
135,0.11450,0.08397,-0.42748,-1.02734,0.05566,-0.13916,0.00,0.00,0.00
136,0.25954,0.06107,-0.20611,-1.01514,0.05322,-0.12427,0.00,0.00,0.00
137,0.13740,-0.29771,-0.31298,-1.01758,0.05884,-0.13379,0.00,0.00,0.00
138,0.13740,-0.27481,-0.24427,-1.01978,0.05420,-0.13208,0.00,0.00,0.00
139,0.00000,0.05344,-0.23664,-1.02051,0.05298,-0.14038,0.00,0.00,0.00
140,0.11450,-0.09160,-0.22901,-1.01514,0.05664,-0.13818,0.00,0.00,0.00
141,0.12977,-0.00763,-0.01527,-1.01807,0.05396,-0.13135,0.00,0.00,0.00
142,-0.11450,-0.30534,-0.15267,-1.02026,0.05322,-0.13281,0.00,0.00,0.00
143,-0.02290,0.07634,-0.12977,-1.01782,0.05103,-0.13599,0.00,0.00,0.00
144,-0.00763,0.03053,-0.09924,-1.01880,0.05566,-0.13501,0.00,0.00,0.00
145,-0.03053,-0.18321,-0.25191,-1.02319,0.05566,-0.13672,0.00,0.00,0.00
146,0.10687,0.05344,-0.02290,-1.02124,0.05859,-0.12793,0.00,0.00,0.00
147,-0.16794,-0.08397,0.02290,-1.01270,0.05664,-0.14185,0.00,0.00,0.00
148,-0.09160,0.19084,0.24427,-1.02173,0.05249,-0.13403,0.00,0.00,0.00
149,-0.07634,-0.12214,0.19084,-1.01587,0.05859,-0.13184,0.00,0.00,0.00
150,-0.12977,-0.00763,0.13740,-1.02246,0.05420,-0.13062,0.00,0.00,0.00
151,-0.16031,-0.04580,0.19847,-1.02051,0.05493,-0.13330,0.00,0.00,0.00
152,-0.38168,0.16031,0.15267,-1.01538,0.06006,-0.13916,0.00,0.00,0.00
153,-0.35878,-0.05344,0.09924,-1.01807,0.05640,-0.12939,0.00,0.00,0.00
154,-0.23664,0.15267,0.13740,-1.01685,0.05591,-0.13843,0.00,0.00,0.00
155,-0.22901,0.08397,0.09160,-1.01416,0.05444,-0.13525,0.00,0.00,0.00
156,-0.05344,0.06870,0.04580,-1.02002,0.05566,-0.13550,0.00,0.00,0.00
157,-0.32824,0.02290,-0.03817,-1.01807,0.05713,-0.14453,0.00,0.00,0.00
158,-0.29771,0.26718,-0.10687,-1.02026,0.05713,-0.13403,0.00,0.00,0.00
159,-0.40458,0.33588,0.12214,-1.02026,0.05908,-0.13184,0.00,0.00,0.00
160,-0.35115,0.21374,0.04580,-1.01904,0.05591,-0.13647,0.00,0.00,0.00
161,-0.53435,0.01527,0.02290,-1.01953,0.05884,-0.13135,0.00,0.00,0.00
162,-0.29008,-0.04580,0.20611,-1.01489,0.05981,-0.13110,0.00,0.00,0.00
163,-0.36641,-0.00763,0.15267,-1.01636,0.05420,-0.13794,0.00,0.00,0.00
164,-0.47328,0.07634,0.27481,-1.01392,0.06274,-0.14404,0.00,0.00,0.00
165,-0.40458,0.06870,0.12977,-1.01294,0.05786,-0.14575,0.00,0.00,0.00
166,-0.45038,0.05344,0.19084,-1.02319,0.05811,-0.13867,0.00,0.00,0.00
167,-0.31298,-0.20611,0.38931,-1.02148,0.05444,-0.12891,0.00,0.00,0.00
168,-0.07634,-0.30534,0.33588,-1.01758,0.05908,-0.14185,0.00,0.00,0.00
169,-0.25954,-0.17557,0.41985,-1.01001,0.06055,-0.13062,0.00,0.00,0.00
170,-0.29008,-0.06107,0.34351,-1.01685,0.05859,-0.12964,0.00,0.00,0.00
171,-0.38168,-0.09160,0.17557,-1.01123,0.05518,-0.12622,0.00,0.00,0.00
172,-0.27481,0.04580,0.38168,-1.01904,0.05591,-0.13379,0.00,0.00,0.00
173,-0.27481,-0.08397,0.12214,-1.01733,0.04907,-0.13379,0.00,0.00,0.00
174,-0.22901,0.07634,0.24427,-1.02148,0.06226,-0.13550,0.00,0.00,0.00
175,-0.31298,-0.23664,0.19847,-1.01904,0.06030,-0.13696,0.00,0.00,0.00
176,-0.09924,0.00000,0.37405,-1.01465,0.05737,-0.13184,0.00,0.00,0.00
177,-0.27481,0.00763,0.25191,-1.01929,0.05566,-0.13574,0.00,0.00,0.00
178,-0.35878,0.01527,0.28244,-1.01831,0.06030,-0.13940,0.00,0.00,0.00
179,-0.37405,0.08397,0.29771,-1.01929,0.05957,-0.13721,0.00,0.00,0.00
180,-0.41221,-0.02290,0.20611,-1.01929,0.06055,-0.14233,0.00,0.00,0.00
181,-0.37405,-0.10687,0.18321,-1.01685,0.06152,-0.13135,0.00,0.00,0.00
182,-0.44275,0.02290,0.16031,-1.01440,0.05933,-0.13672,0.00,0.00,0.00
183,-0.21374,0.10687,0.31298,-1.01685,0.05981,-0.13403,0.00,0.00,0.00
184,-0.13740,-0.09924,0.24427,-1.02075,0.05762,-0.14111,0.00,0.00,0.00
185,-0.45802,0.00000,0.19084,-1.01733,0.05713,-0.13257,0.00,0.00,0.00
186,-0.58015,-0.06870,0.28244,-1.01733,0.06348,-0.13452,0.00,0.00,0.00
187,-0.41985,0.12977,0.06107,-1.01807,0.05542,-0.12305,0.00,0.00,0.00
188,-0.62595,0.06107,0.33588,-1.01709,0.05908,-0.13574,0.00,0.00,0.00
189,-0.58015,-0.03053,0.18321,-1.01978,0.05078,-0.13525,0.00,0.00,0.00
190,-0.61069,0.33588,0.22901,-1.01392,0.06787,-0.12744,0.00,0.00,0.00
191,-0.48092,0.09924,0.25954,-1.01758,0.05688,-0.13135,0.00,0.00,0.00
192,-0.29771,-0.04580,0.20611,-1.01660,0.05786,-0.14185,0.00,0.00,0.00
193,-0.54198,0.25191,0.46565,-1.01270,0.05713,-0.13647,0.00,0.00,0.00
194,-0.38931,0.36641,0.12214,-1.01538,0.05884,-0.13843,0.00,0.00,0.00
195,-0.25954,0.12977,0.41985,-1.01392,0.06348,-0.13696,0.00,0.00,0.00
196,-0.16031,-0.10687,0.37405,-1.01587,0.05054,-0.13110,0.00,0.00,0.00
197,-0.14504,0.16794,0.23664,-1.01880,0.05615,-0.13477,0.00,0.00,0.00
198,-0.19847,0.02290,0.38931,-1.02319,0.06445,-0.13574,0.00,0.00,0.00
199,-0.38931,0.11450,0.39695,-1.01538,0.06665,-0.13330,0.00,0.00,0.00
200,-0.33588,0.29008,0.25191,-1.01831,0.06323,-0.13501,0.00,0.00,0.00
201,-0.12977,0.45038,0.03817,-1.02344,0.05908,-0.14331,0.00,0.00,0.00
202,-0.40458,0.09924,0.09160,-1.01440,0.05811,-0.13232,0.00,0.00,0.00
203,-0.02290,0.23664,0.22137,-1.02295,0.06421,-0.13232,0.00,0.00,0.00
204,-0.21374,0.40458,0.04580,-1.01733,0.06543,-0.13794,0.00,0.00,0.00
205,-0.03817,0.20611,0.19084,-1.02295,0.05811,-0.12671,0.00,0.00,0.00
206,0.14504,0.09160,0.12214,-1.02271,0.06738,-0.12769,0.00,0.00,0.00
207,-0.16031,0.03817,0.16031,-1.01953,0.05908,-0.13330,0.00,0.00,0.00
208,0.00000,0.06107,0.24427,-1.01318,0.06079,-0.13403,0.00,0.00,0.00
209,-0.16794,0.21374,0.19084,-1.01733,0.06104,-0.12915,0.00,0.00,0.00
210,-0.10687,0.22901,0.06870,-1.01782,0.06226,-0.13306,0.00,0.00,0.00
211,-0.08397,0.38168,0.06870,-1.01611,0.05371,-0.13647,0.00,0.00,0.00
212,0.03053,0.28244,-0.04580,-1.01123,0.06177,-0.13525,0.00,0.00,0.00
213,-0.05344,0.45038,0.12214,-1.01489,0.05322,-0.13281,0.00,0.00,0.00
214,-0.19847,0.18321,-0.00763,-1.01685,0.06128,-0.13550,0.00,0.00,0.00
215,0.01527,0.03053,0.06870,-1.01831,0.06421,-0.13599,0.00,0.00,0.00
216,0.00763,0.19847,0.12214,-1.01563,0.05713,-0.13477,0.00,0.00,0.00
217,-0.11450,0.26718,0.10687,-1.01831,0.06714,-0.13525,0.00,0.00,0.00
218,-0.09924,0.35115,-0.09924,-1.01855,0.05957,-0.14014,0.00,0.00,0.00
219,-0.25954,0.07634,-0.02290,-1.02100,0.06421,-0.13501,0.00,0.00,0.00
220,-0.21374,0.08397,0.14504,-1.01270,0.06836,-0.12744,0.00,0.00,0.00
221,-0.41985,0.11450,0.06870,-1.01245,0.06201,-0.13428,0.00,0.00,0.00
222,-0.22901,0.25191,0.09924,-1.01855,0.06079,-0.13257,0.00,0.00,0.00
223,-0.09160,0.09924,-0.01527,-1.01831,0.06494,-0.13574,0.00,0.00,0.00
224,-0.17557,0.36641,0.14504,-1.02002,0.05786,-0.12842,0.00,0.00,0.00
225,-0.28244,0.24427,0.12214,-1.02026,0.06201,-0.13770,0.00,0.00,0.00
226,-0.26718,0.43511,0.20611,-1.01978,0.06201,-0.12915,0.00,0.00,0.00
227,-0.25954,0.06870,0.19084,-1.01367,0.06567,-0.13794,0.00,0.00,0.00
228,-0.16794,0.30534,0.12977,-1.01465,0.06323,-0.12988,0.00,0.00,0.00
229,-0.41221,0.00763,0.01527,-1.01196,0.06250,-0.13013,0.00,0.00,0.00
230,-0.34351,0.35115,0.07634,-1.01587,0.06421,-0.14282,0.00,0.00,0.00
231,-0.29008,0.07634,0.16794,-1.01489,0.06543,-0.13672,0.00,0.00,0.00
232,-0.40458,0.46565,0.16794,-1.02124,0.06421,-0.13159,0.00,0.00,0.00
233,-0.41221,0.29008,0.03817,-1.01563,0.06763,-0.13672,0.00,0.00,0.00
234,-0.22901,0.24427,0.18321,-1.01367,0.06519,-0.13257,0.00,0.00,0.00
235,-0.60305,0.29771,0.05344,-1.01880,0.05933,-0.13770,0.00,0.00,0.00
236,-0.53435,0.34351,0.01527,-1.01636,0.06104,-0.13452,0.00,0.00,0.00
237,-0.32061,0.20611,0.22137,-1.01587,0.06567,-0.14038,0.00,0.00,0.00
238,-0.54198,0.14504,0.22901,-1.01685,0.06396,-0.14111,0.00,0.00,0.00
239,-0.20611,0.38168,0.25954,-1.02295,0.06689,-0.12793,0.00,0.00,0.00
240,-0.35115,0.12977,0.38931,-1.02295,0.06616,-0.13916,0.00,0.00,0.00
241,-0.25191,0.05344,0.25191,-1.01465,0.05835,-0.12988,0.00,0.00,0.00
242,-0.35878,0.40458,0.19847,-1.01270,0.06274,-0.13306,0.00,0.00,0.00
243,-0.41985,0.19084,0.35115,-1.02051,0.06543,-0.13110,0.00,0.00,0.00
244,-0.47328,0.04580,0.19084,-1.01465,0.06445,-0.13379,0.00,0.00,0.00
245,-0.54962,0.10687,0.29771,-1.01343,0.06396,-0.13306,0.00,0.00,0.00
246,-0.74809,0.03817,0.15267,-1.02344,0.06348,-0.13354,0.00,0.00,0.00
247,-0.70229,-0.12977,0.28244,-1.01343,0.06201,-0.12866,0.00,0.00,0.00
248,-0.64885,0.08397,0.30534,-1.01514,0.05908,-0.13843,0.00,0.00,0.00
249,-0.63359,0.31298,0.35878,-1.01929,0.06104,-0.13403,0.00,0.00,0.00
250,-0.71756,0.22901,0.58779,-1.01416,0.06226,-0.14111,0.00,0.00,0.00
251,-0.61832,0.23664,0.45802,-1.01733,0.06616,-0.13232,0.00,0.00,0.00
252,-0.64122,0.24427,0.53435,-1.01831,0.06592,-0.13550,0.00,0.00,0.00
253,-0.85496,0.12977,0.48092,-1.01514,0.06934,-0.13086,0.00,0.00,0.00
254,-0.58779,0.33588,0.51145,-1.01587,0.06421,-0.13672,0.00,0.00,0.00
255,-0.71756,0.03053,0.30534,-1.01636,0.06738,-0.12964,0.00,0.00,0.00
256,-0.83206,0.14504,0.53435,-1.01904,0.06909,-0.13428,0.00,0.00,0.00
257,-0.67939,0.20611,0.26718,-1.01465,0.06616,-0.13501,0.00,0.00,0.00
258,-0.72519,0.16031,0.36641,-1.01636,0.06714,-0.13843,0.00,0.00,0.00
259,-0.50382,0.02290,0.22137,-1.01978,0.06860,-0.13574,0.00,0.00,0.00
260,-0.70229,0.21374,0.29771,-1.01782,0.06714,-0.13550,0.00,0.00,0.00
261,-0.76336,0.22901,0.23664,-1.01782,0.06445,-0.13867,0.00,0.00,0.00
262,-0.79389,0.34351,0.22137,-1.01831,0.06299,-0.14038,0.00,0.00,0.00
263,-0.83206,-0.16794,0.02290,-1.01782,0.06348,-0.13599,0.00,0.00,0.00
264,-0.74809,0.05344,0.19084,-1.01855,0.06152,-0.13184,0.00,0.00,0.00
265,-0.73282,0.19847,0.16031,-1.01758,0.05835,-0.13818,0.00,0.00,0.00
266,-0.84733,0.16031,0.12214,-1.01440,0.06958,-0.13306,0.00,0.00,0.00
267,-0.70229,0.30534,0.23664,-1.01489,0.06543,-0.13843,0.00,0.00,0.00
268,-0.58779,0.03053,0.24427,-1.01489,0.06909,-0.13867,0.00,0.00,0.00
269,-0.87786,0.16794,0.24427,-1.01636,0.06934,-0.13940,0.00,0.00,0.00
270,-0.86260,0.12214,0.38931,-1.01367,0.06421,-0.13062,0.00,0.00,0.00
271,-0.91603,0.02290,0.35878,-1.01685,0.07153,-0.12744,0.00,0.00,0.00
272,-1.01527,0.14504,0.25191,-1.01392,0.07104,-0.13696,0.00,0.00,0.00
273,-1.09160,0.18321,0.16794,-1.02466,0.06714,-0.13940,0.00,0.00,0.00
274,-1.30534,0.19084,0.04580,-1.01465,0.07153,-0.13379,0.00,0.00,0.00
275,-1.27481,0.03053,0.09924,-1.02124,0.07324,-0.13525,0.00,0.00,0.00
276,-1.06107,0.19084,0.24427,-1.01440,0.06665,-0.13354,0.00,0.00,0.00
277,-1.05344,0.02290,0.23664,-1.02051,0.06519,-0.13647,0.00,0.00,0.00
278,-1.29008,-0.09160,0.16794,-1.01440,0.06494,-0.13623,0.00,0.00,0.00
279,-1.29008,0.09160,0.15267,-1.01611,0.06763,-0.13428,0.00,0.00,0.00
280,-1.03053,0.13740,0.17557,-1.01172,0.06519,-0.13428,0.00,0.00,0.00
281,-1.00763,0.25191,0.22137,-1.01782,0.06738,-0.13062,0.00,0.00,0.00
282,-0.66412,0.23664,0.00763,-1.01807,0.06152,-0.13379,0.00,0.00,0.00
283,-0.52672,0.19847,0.04580,-1.01904,0.06641,-0.12915,0.00,0.00,0.00
284,-0.44275,-0.10687,0.17557,-1.01001,0.06665,-0.13428,0.00,0.00,0.00
285,-0.30534,-0.06107,0.22901,-1.01294,0.06763,-0.13159,0.00,0.00,0.00
286,-0.19084,0.33588,0.25954,-1.01733,0.06274,-0.13452,0.00,0.00,0.00
287,-0.04580,0.35115,0.22137,-1.02319,0.06738,-0.14233,0.00,0.00,0.00
288,-0.30534,0.11450,0.35115,-1.01489,0.06372,-0.13525,0.00,0.00,0.00
289,-0.45802,0.16031,0.26718,-1.01416,0.06372,-0.13843,0.00,0.00,0.00
290,-0.60305,-0.00763,0.32061,-1.01440,0.07153,-0.13379,0.00,0.00,0.00
291,-0.73282,0.07634,0.27481,-1.02100,0.07422,-0.13062,0.00,0.00,0.00
292,-0.92366,0.13740,0.40458,-1.01563,0.07104,-0.14478,0.00,0.00,0.00
293,-0.96183,-0.13740,0.24427,-1.01416,0.06714,-0.13452,0.00,0.00,0.00
294,-1.04580,0.14504,0.13740,-1.02026,0.07080,-0.12915,0.00,0.00,0.00
295,-1.12214,-0.02290,0.20611,-1.01929,0.06763,-0.13452,0.00,0.00,0.00
296,-1.20611,-0.12977,0.22137,-1.01660,0.06836,-0.13525,0.00,0.00,0.00
297,-1.57252,-0.25191,-0.03053,-1.01636,0.07446,-0.14648,0.00,0.00,0.00
298,-1.56489,-0.09160,0.13740,-1.01074,0.07837,-0.12988,0.00,0.00,0.00
299,-1.67176,-0.07634,-0.03817,-1.01489,0.07300,-0.14087,0.00,0.00,0.00
300,-1.47328,0.19847,-0.20611,-1.02051,0.06372,-0.13770,0.00,0.00,0.00
301,-1.25954,-0.09160,-0.17557,-1.01685,0.06958,-0.14331,0.00,0.00,0.00
302,-0.78626,0.25954,-0.13740,-1.01563,0.05615,-0.13428,0.00,0.00,0.00
303,-0.54962,0.29771,0.10687,-1.01392,0.06836,-0.14136,0.00,0.00,0.00
304,-0.52672,0.33588,0.11450,-1.01270,0.07251,-0.13623,0.00,0.00,0.00
305,-0.44275,0.25954,0.12214,-1.01001,0.06470,-0.12305,0.00,0.00,0.00
306,-0.56489,0.25191,0.21374,-1.01099,0.07007,-0.13477,0.00,0.00,0.00
307,-0.38931,0.32824,0.35115,-1.01489,0.06860,-0.13452,0.00,0.00,0.00
308,-0.13740,0.27481,0.40458,-1.01685,0.07520,-0.12964,0.00,0.00,0.00
309,-0.42748,0.05344,0.33588,-1.01611,0.07324,-0.14038,0.00,0.00,0.00
310,-0.61069,0.09924,0.36641,-1.01685,0.07153,-0.13574,0.00,0.00,0.00
311,-0.63359,0.23664,0.35115,-1.01880,0.07617,-0.13525,0.00,0.00,0.00
312,-0.74809,0.04580,0.32824,-1.02173,0.07422,-0.13257,0.00,0.00,0.00
313,-0.93893,0.25954,0.36641,-1.01074,0.07349,-0.13672,0.00,0.00,0.00
314,-0.96947,0.09924,0.26718,-1.01465,0.07495,-0.13794,0.00,0.00,0.00
315,-1.14504,0.10687,0.29771,-1.01611,0.07178,-0.13354,0.00,0.00,0.00
316,-1.05344,0.16794,0.26718,-1.01440,0.07837,-0.13037,0.00,0.00,0.00
317,-0.90840,0.00000,0.18321,-1.01489,0.07007,-0.13232,0.00,0.00,0.00
318,-0.61069,-0.03053,0.16794,-1.01636,0.06372,-0.13574,0.00,0.00,0.00
319,-0.96183,0.02290,0.32824,-1.02271,0.07715,-0.13062,0.00,0.00,0.00
320,-1.01527,-0.09924,0.07634,-1.01953,0.07739,-0.13403,0.00,0.00,0.00
321,-1.42748,-0.06870,0.25954,-1.01538,0.07178,-0.13989,0.00,0.00,0.00
322,-1.32824,-0.11450,0.02290,-1.01465,0.07178,-0.12866,0.00,0.00,0.00
323,-1.44275,0.26718,-0.06107,-1.01978,0.07080,-0.13965,0.00,0.00,0.00
324,-1.15267,0.09924,-0.07634,-1.01563,0.06616,-0.13989,0.00,0.00,0.00
325,-0.97710,0.21374,-0.03817,-1.01440,0.07178,-0.14526,0.00,0.00,0.00
326,-0.55725,0.08397,-0.07634,-1.01709,0.07031,-0.13013,0.00,0.00,0.00
327,-0.60305,0.03817,0.06870,-1.01221,0.07007,-0.12622,0.00,0.00,0.00
328,-0.44275,0.02290,0.32824,-1.01489,0.06812,-0.13989,0.00,0.00,0.00
329,-0.61069,0.15267,0.16794,-1.01465,0.07324,-0.12256,0.00,0.00,0.00
330,-0.52672,0.14504,0.27481,-1.01294,0.07495,-0.13745,0.00,0.00,0.00
331,-0.59542,0.27481,0.38168,-1.01318,0.06958,-0.13794,0.00,0.00,0.00
332,-0.62595,-0.03817,0.57252,-1.01563,0.06885,-0.13525,0.00,0.00,0.00
333,-0.74046,-0.02290,0.29008,-1.01660,0.06714,-0.13379,0.00,0.00,0.00
334,-0.73282,-0.15267,0.35115,-1.01440,0.07617,-0.14502,0.00,0.00,0.00
335,-0.76336,0.16031,0.26718,-1.00781,0.07422,-0.14111,0.00,0.00,0.00
336,-0.50382,0.09160,0.19847,-1.01563,0.07300,-0.13794,0.00,0.00,0.00
337,-0.69466,0.03817,0.27481,-1.01270,0.07300,-0.13208,0.00,0.00,0.00
338,-0.80916,0.19847,0.09924,-1.01782,0.07788,-0.13574,0.00,0.00,0.00
339,-0.51908,0.16031,-0.03817,-1.02051,0.06787,-0.13550,0.00,0.00,0.00
340,-0.42748,-0.12977,0.12214,-1.01733,0.07080,-0.12622,0.00,0.00,0.00
341,-0.59542,-0.03817,-0.21374,-1.01563,0.06934,-0.13574,0.00,0.00,0.00
342,-0.55725,0.04580,-0.19847,-1.01831,0.06909,-0.13965,0.00,0.00,0.00
343,-0.58779,0.06870,-0.16794,-1.01880,0.07275,-0.13745,0.00,0.00,0.00
344,-0.39695,0.09160,0.06870,-1.01831,0.07715,-0.14160,0.00,0.00,0.00
345,-0.48092,0.17557,-0.03053,-1.01563,0.07666,-0.13794,0.00,0.00,0.00
346,-0.61832,-0.09160,0.11450,-1.02100,0.07471,-0.13647,0.00,0.00,0.00
347,-0.86260,0.08397,0.05344,-1.01831,0.07593,-0.13794,0.00,0.00,0.00
348,-0.81679,0.01527,-0.00763,-1.01172,0.06812,-0.13647,0.00,0.00,0.00
349,-0.54198,0.13740,0.09924,-1.01636,0.06982,-0.14063,0.00,0.00,0.00
350,-0.54198,0.30534,0.18321,-1.01953,0.07593,-0.13770,0.00,0.00,0.00
351,-0.48855,0.04580,0.11450,-1.01465,0.07178,-0.13452,0.00,0.00,0.00
352,-0.51145,-0.04580,0.11450,-1.01880,0.07959,-0.13550,0.00,0.00,0.00
353,-0.41221,0.22137,0.29008,-1.01636,0.07471,-0.13525,0.00,0.00,0.00
354,-0.45802,0.16031,0.29008,-1.01660,0.07373,-0.13110,0.00,0.00,0.00
355,-0.68702,0.06870,0.23664,-1.01563,0.07031,-0.13892,0.00,0.00,0.00
356,-0.87023,0.03817,0.49618,-1.00781,0.07007,-0.13013,0.00,0.00,0.00
357,-0.80153,0.19847,0.20611,-1.01392,0.07715,-0.13892,0.00,0.00,0.00
358,-0.60305,0.25191,0.24427,-1.01831,0.07324,-0.12964,0.00,0.00,0.00
359,-0.67176,0.19847,0.10687,-1.02246,0.07422,-0.13647,0.00,0.00,0.00
360,-0.45038,0.40458,0.12977,-1.01270,0.07153,-0.14233,0.00,0.00,0.00
361,-0.36641,0.27481,0.30534,-1.01123,0.07202,-0.13818,0.00,0.00,0.00
362,-0.28244,0.19847,0.43511,-1.01416,0.06934,-0.13208,0.00,0.00,0.00
363,-0.36641,0.35878,0.32824,-1.00928,0.07007,-0.14185,0.00,0.00,0.00
364,-0.16794,0.37405,0.36641,-1.01929,0.07373,-0.14355,0.00,0.00,0.00
365,-0.08397,0.35878,0.41221,-1.02100,0.07446,-0.13428,0.00,0.00,0.00
366,0.10687,0.03053,0.43511,-1.01904,0.07275,-0.13477,0.00,0.00,0.00
367,0.08397,0.17557,0.30534,-1.02246,0.07397,-0.12842,0.00,0.00,0.00
368,0.03053,0.16794,0.70229,-1.02393,0.07422,-0.13989,0.00,0.00,0.00
369,-0.14504,0.32061,0.54962,-1.01294,0.07251,-0.12646,0.00,0.00,0.00
370,-0.16031,0.23664,0.43511,-1.01831,0.07275,-0.13867,0.00,0.00,0.00
371,-0.36641,0.25191,0.61832,-1.02075,0.07910,-0.13574,0.00,0.00,0.00
372,-0.32824,0.41985,0.68702,-1.01782,0.07446,-0.13843,0.00,0.00,0.00
373,-0.37405,0.19847,0.90076,-1.01929,0.07813,-0.13672,0.00,0.00,0.00
374,-0.37405,0.05344,0.61832,-1.01782,0.07642,-0.13330,0.00,0.00,0.00
375,-0.32061,0.00763,0.48092,-1.01709,0.08228,-0.14771,0.00,0.00,0.00
376,-0.14504,0.04580,0.42748,-1.01538,0.07861,-0.13330,0.00,0.00,0.00
377,-0.19084,0.00763,0.35115,-1.01416,0.07275,-0.13281,0.00,0.00,0.00
378,0.06870,0.15267,0.18321,-1.01514,0.07690,-0.13818,0.00,0.00,0.00
379,0.17557,0.00000,0.15267,-1.02075,0.07593,-0.12695,0.00,0.00,0.00
380,0.25954,0.19084,0.22901,-1.01831,0.08032,-0.13330,0.00,0.00,0.00
381,0.22901,-0.03817,0.19084,-1.01733,0.08081,-0.13647,0.00,0.00,0.00
382,0.21374,0.05344,0.03817,-1.01733,0.07813,-0.14160,0.00,0.00,0.00
383,-0.07634,0.19084,-0.04580,-1.02051,0.07617,-0.13696,0.00,0.00,0.00
384,0.08397,0.31298,0.01527,-1.01514,0.07642,-0.13550,0.00,0.00,0.00
385,0.17557,0.34351,0.12214,-1.01318,0.08154,-0.13599,0.00,0.00,0.00
386,0.22901,0.11450,-0.04580,-1.01416,0.07935,-0.13550,0.00,0.00,0.00
387,0.32824,0.31298,0.04580,-1.01660,0.07397,-0.12793,0.00,0.00,0.00
388,0.43511,0.22137,0.19847,-1.01025,0.07397,-0.13452,0.00,0.00,0.00
389,0.16031,0.19847,0.14504,-1.01416,0.07471,-0.14136,0.00,0.00,0.00
390,0.19084,0.18321,0.05344,-1.01318,0.07349,-0.13794,0.00,0.00,0.00
391,0.19847,0.10687,0.19084,-1.01416,0.06982,-0.13721,0.00,0.00,0.00
392,0.40458,0.35878,0.04580,-1.01929,0.08179,-0.14331,0.00,0.00,0.00
393,0.24427,0.19847,0.31298,-1.01416,0.08154,-0.13867,0.00,0.00,0.00
394,0.36641,0.16031,0.02290,-1.01978,0.07861,-0.13599,0.00,0.00,0.00
395,0.24427,-0.04580,0.08397,-1.01465,0.07910,-0.13843,0.00,0.00,0.00
396,0.22137,0.19084,-0.02290,-1.01831,0.08057,-0.13477,0.00,0.00,0.00
397,-0.00763,0.30534,-0.08397,-1.01807,0.08423,-0.13696,0.00,0.00,0.00
398,-0.06107,0.25954,-0.06107,-1.00977,0.07471,-0.13354,0.00,0.00,0.00
399,0.06870,0.26718,0.06870,-1.01709,0.07129,-0.14624,0.00,0.00,0.00
400,-0.05344,0.20611,0.07634,-1.01733,0.07324,-0.14209,0.00,0.00,0.00
401,0.14504,0.28244,0.21374,-1.01123,0.07373,-0.12964,0.00,0.00,0.00
402,0.00000,0.17557,0.28244,-1.01709,0.07764,-0.13525,0.00,0.00,0.00
403,-0.14504,-0.02290,0.25954,-1.01660,0.08496,-0.13965,0.00,0.00,0.00
404,-0.38931,0.06870,0.05344,-1.01270,0.08667,-0.13867,0.00,0.00,0.00
405,-0.41221,0.18321,0.16031,-1.01367,0.07446,-0.13867,0.00,0.00,0.00
406,-0.61832,0.12977,0.06107,-1.01978,0.07935,-0.13477,0.00,0.00,0.00
407,-0.40458,0.12214,-0.06870,-1.01831,0.07275,-0.13794,0.00,0.00,0.00
408,-0.35878,0.41985,-0.00763,-1.01001,0.07397,-0.13794,0.00,0.00,0.00
409,-0.53435,0.19847,-0.05344,-1.01611,0.08398,-0.14233,0.00,0.00,0.00
410,-0.37405,0.13740,-0.24427,-1.01074,0.07129,-0.13501,0.00,0.00,0.00
411,-0.66412,0.07634,-0.29008,-1.00586,0.07568,-0.14429,0.00,0.00,0.00
412,-0.26718,0.04580,-0.22901,-1.01367,0.07764,-0.13574,0.00,0.00,0.00
413,-0.58015,0.16794,-0.34351,-1.01392,0.07568,-0.13525,0.00,0.00,0.00
414,-0.35878,0.35878,-0.21374,-1.01587,0.08276,-0.14185,0.00,0.00,0.00
415,-0.58779,0.38168,-0.24427,-1.02368,0.08325,-0.14087,0.00,0.00,0.00
416,-0.58015,0.41221,-0.14504,-1.01978,0.08032,-0.14453,0.00,0.00,0.00
417,-0.64122,0.25954,-0.33588,-1.01929,0.08228,-0.13721,0.00,0.00,0.00
418,-0.57252,0.31298,-0.16794,-1.01318,0.08105,-0.13257,0.00,0.00,0.00
419,-0.39695,0.09160,-0.16794,-1.01587,0.08350,-0.13940,0.00,0.00,0.00
420,-0.51145,0.00763,-0.29008,-1.01367,0.07764,-0.13501,0.00,0.00,0.00
421,-0.70229,0.09924,-0.23664,-1.01709,0.08154,-0.13989,0.00,0.00,0.00
422,-0.90076,0.05344,-0.28244,-1.01929,0.08081,-0.13501,0.00,0.00,0.00
423,-0.77099,0.09160,-0.18321,-1.01660,0.08276,-0.13501,0.00,0.00,0.00
424,-0.79389,0.14504,-0.32061,-1.00830,0.07813,-0.13403,0.00,0.00,0.00
425,-1.21374,0.26718,-0.29008,-1.01245,0.07983,-0.13501,0.00,0.00,0.00
426,-1.17557,0.34351,-0.45038,-1.01611,0.07739,-0.14209,0.00,0.00,0.00
427,-1.00000,0.41221,-0.50382,-1.00977,0.07837,-0.14331,0.00,0.00,0.00
428,-0.82443,0.09160,-0.70992,-1.01318,0.08350,-0.14185,0.00,0.00,0.00
429,-0.74046,0.30534,-0.93130,-1.01636,0.07983,-0.12671,0.00,0.00,0.00
430,-0.53435,0.38168,-0.65649,-1.02026,0.07349,-0.13062,0.00,0.00,0.00
431,-0.60305,0.41221,-0.30534,-1.01636,0.07568,-0.13965,0.00,0.00,0.00
432,-0.53435,0.58015,-0.36641,-1.01587,0.07178,-0.13940,0.00,0.00,0.00
433,-1.13740,0.64122,-0.08397,-1.01318,0.08228,-0.13696,0.00,0.00,0.00
434,-1.26718,0.47328,-0.05344,-1.01538,0.08276,-0.13550,0.00,0.00,0.00
435,-1.78626,0.36641,-0.08397,-1.01123,0.07642,-0.14111,0.00,0.00,0.00
436,-2.11450,0.39695,0.03053,-1.01660,0.07935,-0.14551,0.00,0.00,0.00
437,-2.06870,0.36641,0.12214,-1.02368,0.08008,-0.13428,0.00,0.00,0.00
438,-2.09160,0.12214,0.19847,-1.01196,0.07739,-0.14160,0.00,0.00,0.00
439,-2.06107,0.24427,0.12977,-1.01367,0.07764,-0.13770,0.00,0.00,0.00
440,-2.09924,0.12214,0.12214,-1.01978,0.07593,-0.13477,0.00,0.00,0.00
441,-2.09924,0.21374,0.19084,-1.01807,0.07373,-0.14160,0.00,0.00,0.00
442,-1.80153,0.25191,0.22901,-1.01563,0.07837,-0.13794,0.00,0.00,0.00
443,-1.90076,0.49618,0.16794,-1.01514,0.07837,-0.13159,0.00,0.00,0.00
444,-1.96947,0.25954,0.32824,-1.01685,0.07935,-0.13086,0.00,0.00,0.00
445,-1.93130,0.12214,0.48092,-1.01929,0.07593,-0.13672,0.00,0.00,0.00
446,-1.95420,0.18321,0.30534,-1.01831,0.08008,-0.14111,0.00,0.00,0.00
447,-1.91603,0.19847,0.32061,-1.01831,0.08203,-0.14575,0.00,0.00,0.00
448,-1.79389,0.24427,0.20611,-1.00830,0.08130,-0.13989,0.00,0.00,0.00
449,-1.87023,0.15267,0.14504,-1.01245,0.08472,-0.13965,0.00,0.00,0.00
450,-1.77863,0.23664,0.42748,-1.01904,0.07935,-0.14478,0.00,0.00,0.00
451,-1.55725,-0.04580,0.39695,-1.02075,0.07959,-0.13452,0.00,0.00,0.00
452,-1.30534,0.05344,0.28244,-1.01880,0.08838,-0.13672,0.00,0.00,0.00
453,-1.03053,0.01527,0.25954,-1.01050,0.08154,-0.13159,0.00,0.00,0.00
454,-0.84733,-0.08397,-0.11450,-1.01318,0.08276,-0.13965,0.00,0.00,0.00
455,-0.83206,-0.16794,-0.18321,-1.01294,0.07935,-0.13818,0.00,0.00,0.00
456,-0.92366,0.08397,-0.28244,-1.01514,0.08228,-0.13672,0.00,0.00,0.00
457,-0.64885,-0.05344,-0.11450,-1.01782,0.07837,-0.14380,0.00,0.00,0.00
458,-0.98473,-0.32824,-0.12214,-1.01709,0.07690,-0.13525,0.00,0.00,0.00
459,-0.68702,-0.06870,-0.24427,-1.01758,0.07666,-0.13867,0.00,0.00,0.00
460,-0.68702,-0.12214,-0.36641,-1.01489,0.07983,-0.13403,0.00,0.00,0.00
461,-0.32061,-0.01527,-0.39695,-1.01172,0.07886,-0.14380,0.00,0.00,0.00
462,-0.17557,-0.19084,-0.38168,-1.00586,0.07739,-0.14917,0.00,0.00,0.00
463,0.07634,-0.13740,-0.48092,-1.01953,0.07788,-0.13477,0.00,0.00,0.00
464,0.10687,0.00763,-0.38931,-1.01953,0.07739,-0.13745,0.00,0.00,0.00
465,0.09924,-0.16031,-0.41221,-1.01880,0.08179,-0.14209,0.00,0.00,0.00
466,-0.03053,0.14504,-0.39695,-1.01123,0.07520,-0.14014,0.00,0.00,0.00
467,-0.25191,0.09924,-0.41221,-1.01929,0.07886,-0.13770,0.00,0.00,0.00
468,-0.02290,0.08397,-0.29008,-1.01855,0.07520,-0.13843,0.00,0.00,0.00
469,-0.03817,0.25191,-0.29008,-1.01416,0.07642,-0.13867,0.00,0.00,0.00
470,0.03053,0.15267,-0.28244,-1.01172,0.07813,-0.13306,0.00,0.00,0.00
471,0.09160,0.16031,-0.29771,-1.01245,0.07275,-0.15039,0.00,0.00,0.00
472,-0.03053,0.16031,-0.21374,-1.00781,0.07886,-0.13916,0.00,0.00,0.00
473,0.36641,0.35878,-0.32061,-1.01636,0.08203,-0.14478,0.00,0.00,0.00
474,0.19084,0.15267,-0.33588,-1.01587,0.07764,-0.14331,0.00,0.00,0.00
475,0.01527,0.16031,-0.17557,-1.01123,0.07764,-0.13623,0.00,0.00,0.00
476,-0.08397,0.03053,-0.32061,-1.01416,0.08740,-0.14404,0.00,0.00,0.00
477,-0.08397,0.16031,-0.48092,-1.01685,0.08350,-0.14038,0.00,0.00,0.00
478,-0.21374,0.01527,-0.61832,-1.01245,0.08203,-0.13159,0.00,0.00,0.00
479,0.09924,0.09924,-0.70992,-1.01563,0.07837,-0.14819,0.00,0.00,0.00
480,-0.22901,0.24427,-0.64122,-1.01807,0.08398,-0.14111,0.00,0.00,0.00
481,-0.03053,0.33588,-0.47328,-1.01855,0.07935,-0.14160,0.00,0.00,0.00
482,0.03053,0.09924,-0.47328,-1.01514,0.07642,-0.13892,0.00,0.00,0.00
483,0.14504,-0.02290,-0.35878,-1.01465,0.08252,-0.14697,0.00,0.00,0.00
484,0.17557,0.09160,-0.25954,-1.01489,0.07739,-0.14160,0.00,0.00,0.00
485,0.17557,0.06107,-0.28244,-1.00879,0.07886,-0.14697,0.00,0.00,0.00
486,0.06870,0.02290,-0.24427,-1.01050,0.07715,-0.13037,0.00,0.00,0.00
487,-0.00763,-0.01527,-0.06870,-1.01294,0.08276,-0.13794,0.00,0.00,0.00
488,0.04580,0.06107,0.12977,-1.00684,0.06836,-0.13892,0.00,0.00,0.00
489,0.11450,-0.01527,-0.05344,-1.01416,0.07153,-0.13623,0.00,0.00,0.00
490,0.05344,0.06870,-0.06870,-1.01685,0.07739,-0.14453,0.00,0.00,0.00
491,0.42748,0.02290,0.22137,-1.01563,0.08032,-0.13770,0.00,0.00,0.00
492,0.54198,0.20611,0.05344,-1.01733,0.07764,-0.13184,0.00,0.00,0.00
493,0.29771,0.20611,-0.08397,-1.00903,0.08325,-0.14307,0.00,0.00,0.00
494,0.32824,0.12214,-0.10687,-1.01563,0.07837,-0.14185,0.00,0.00,0.00
495,-0.06870,-0.03053,-0.15267,-1.02026,0.08301,-0.14746,0.00,0.00,0.00
496,0.10687,0.16031,-0.23664,-1.01514,0.08374,-0.12866,0.00,0.00,0.00
497,0.10687,0.07634,-0.18321,-1.01343,0.07959,-0.14038,0.00,0.00,0.00
498,0.18321,-0.12977,-0.41985,-1.00830,0.08081,-0.14404,0.00,0.00,0.00
499,0.07634,-0.14504,-0.42748,-1.01245,0.08130,-0.14307,0.00,0.00,0.00
500,-0.00763,-0.16794,-0.54962,-1.01099,0.08203,-0.13306,0.00,0.00,0.00
501,-0.17557,-0.01527,-0.45038,-1.01636,0.08081,-0.14307,0.00,0.00,0.00
502,-0.15267,-0.10687,-0.89313,-1.01343,0.08008,-0.13940,0.00,0.00,0.00
503,-0.13740,-0.14504,-0.93130,-1.01318,0.07764,-0.13892,0.00,0.00,0.00
504,-0.11450,0.14504,-0.59542,-1.00586,0.07739,-0.13794,0.00,0.00,0.00
505,0.17557,0.10687,-0.54962,-1.01221,0.08203,-0.12988,0.00,0.00,0.00
506,-0.07634,0.15267,-0.53435,-1.01978,0.07056,-0.14819,0.00,0.00,0.00
507,0.00000,-0.13740,-0.41221,-1.01685,0.08301,-0.14136,0.00,0.00,0.00
508,0.01527,-0.02290,-0.39695,-1.01416,0.08008,-0.14233,0.00,0.00,0.00
509,0.00763,-0.03053,-0.37405,-1.01929,0.08081,-0.14185,0.00,0.00,0.00
510,0.25954,-0.05344,-0.24427,-1.01025,0.07617,-0.13940,0.00,0.00,0.00
511,0.25191,0.18321,-0.39695,-1.00854,0.07324,-0.14282,0.00,0.00,0.00
512,-0.03817,0.16794,-0.28244,-1.01514,0.07935,-0.13916,0.00,0.00,0.00
513,0.28244,0.01527,-0.32824,-1.01929,0.08057,-0.13770,0.00,0.00,0.00
514,0.12977,0.19084,-0.34351,-1.01929,0.07422,-0.13672,0.00,0.00,0.00
515,0.09924,0.22137,-0.23664,-1.01782,0.08496,-0.13892,0.00,0.00,0.00
516,-0.00763,0.14504,-0.32061,-1.01465,0.08252,-0.13330,0.00,0.00,0.00
517,0.03817,0.01527,-0.54962,-1.00830,0.07471,-0.14185,0.00,0.00,0.00
518,-0.01527,0.36641,-0.28244,-1.01563,0.08105,-0.13843,0.00,0.00,0.00
519,0.03053,0.00763,-0.43511,-1.01440,0.08032,-0.14600,0.00,0.00,0.00
520,0.03053,0.20611,-0.35115,-1.02100,0.08154,-0.13208,0.00,0.00,0.00
521,0.03053,0.11450,-0.40458,-1.01294,0.07495,-0.13989,0.00,0.00,0.00
522,-0.18321,0.09160,-0.60305,-1.01416,0.08691,-0.13892,0.00,0.00,0.00
523,-0.09924,-0.10687,-0.57252,-1.01929,0.07764,-0.14111,0.00,0.00,0.00
524,-0.14504,0.06107,-0.58015,-1.01733,0.08203,-0.13794,0.00,0.00,0.00
525,-0.16031,0.19084,-0.28244,-1.01904,0.07666,-0.13892,0.00,0.00,0.00
526,-0.21374,0.16031,-0.38168,-1.01245,0.07739,-0.14063,0.00,0.00,0.00
527,-0.29008,0.27481,-0.33588,-1.01367,0.07983,-0.14355,0.00,0.00,0.00
528,-0.18321,0.13740,-0.38168,-1.01221,0.08008,-0.13159,0.00,0.00,0.00
529,-0.14504,0.11450,-0.44275,-1.01733,0.07617,-0.13330,0.00,0.00,0.00
530,-0.11450,0.20611,-0.31298,-1.01538,0.07764,-0.13599,0.00,0.00,0.00
531,-0.03053,0.13740,-0.32824,-1.01416,0.08203,-0.13794,0.00,0.00,0.00
532,0.02290,0.25954,-0.10687,-1.01611,0.08130,-0.13599,0.00,0.00,0.00
533,-0.13740,0.30534,-0.28244,-1.01147,0.07788,-0.13892,0.00,0.00,0.00
534,-0.14504,0.12214,-0.19084,-1.00903,0.07886,-0.14917,0.00,0.00,0.00
535,-0.32824,-0.18321,-0.48092,-1.00903,0.07910,-0.13647,0.00,0.00,0.00
536,-0.16031,0.12977,-0.46565,-1.01270,0.08276,-0.13477,0.00,0.00,0.00
537,-0.06107,0.29771,-0.29008,-1.01978,0.07910,-0.14624,0.00,0.00,0.00
538,-0.08397,0.19084,-0.39695,-1.01758,0.07153,-0.13306,0.00,0.00,0.00
539,-0.12977,0.09924,-0.48855,-1.01733,0.07983,-0.14014,0.00,0.00,0.00
540,-0.03817,0.38168,-0.36641,-1.01611,0.07886,-0.13770,0.00,0.00,0.00
541,-0.08397,0.27481,-0.30534,-1.01636,0.08276,-0.14014,0.00,0.00,0.00
542,-0.22901,0.42748,-0.37405,-1.01611,0.08301,-0.13354,0.00,0.00,0.00
543,-0.19084,0.19084,-0.54198,-1.01172,0.07715,-0.13965,0.00,0.00,0.00
544,-0.01527,0.22137,-0.28244,-1.01855,0.08008,-0.13818,0.00,0.00,0.00
545,-0.01527,0.10687,-0.48092,-1.01514,0.08203,-0.14795,0.00,0.00,0.00
546,-0.12214,0.15267,-0.34351,-1.01343,0.07910,-0.14136,0.00,0.00,0.00
547,-0.08397,0.43511,-0.28244,-1.01416,0.07788,-0.13770,0.00,0.00,0.00
548,-0.29008,0.31298,-0.32824,-1.01538,0.08521,-0.13989,0.00,0.00,0.00
549,-0.10687,0.22901,-0.42748,-1.01172,0.08374,-0.13696,0.00,0.00,0.00
550,-0.29771,0.26718,-0.32824,-1.01245,0.07690,-0.14795,0.00,0.00,0.00
551,-0.42748,0.18321,-0.33588,-1.01050,0.07495,-0.13623,0.00,0.00,0.00
552,-0.21374,0.20611,-0.37405,-1.01172,0.08008,-0.14038,0.00,0.00,0.00
553,-0.31298,0.37405,-0.43511,-1.01367,0.07715,-0.14478,0.00,0.00,0.00
554,-0.35878,0.32061,-0.31298,-1.01465,0.08105,-0.14233,0.00,0.00,0.00
555,-0.31298,0.14504,-0.30534,-1.01245,0.08130,-0.13721,0.00,0.00,0.00
556,-0.25954,0.33588,-0.31298,-1.01978,0.07520,-0.14038,0.00,0.00,0.00
557,-0.09924,0.33588,-0.56489,-1.01538,0.07520,-0.14917,0.00,0.00,0.00
558,-0.12977,0.28244,-0.54962,-1.00684,0.07275,-0.13818,0.00,0.00,0.00
559,-0.25954,0.25954,-0.47328,-1.02002,0.08276,-0.13525,0.00,0.00,0.00
560,-0.06870,0.23664,-0.48092,-1.01563,0.07666,-0.14136,0.00,0.00,0.00
561,-0.08397,0.32824,-0.60305,-1.00830,0.07642,-0.13232,0.00,0.00,0.00
562,-0.35878,0.22137,-0.32824,-1.01392,0.08057,-0.13867,0.00,0.00,0.00
563,-0.11450,0.35878,-0.56489,-1.01831,0.07739,-0.14575,0.00,0.00,0.00
564,-0.10687,0.38931,-0.23664,-1.01978,0.07300,-0.13965,0.00,0.00,0.00
565,-0.10687,0.23664,-0.31298,-1.00830,0.07568,-0.13818,0.00,0.00,0.00
566,0.05344,-0.01527,-0.41221,-1.01563,0.07544,-0.13794,0.00,0.00,0.00
567,-0.01527,0.29771,-0.17557,-1.01807,0.07275,-0.13428,0.00,0.00,0.00
568,-0.02290,0.15267,-0.19847,-1.01636,0.08521,-0.14600,0.00,0.00,0.00
569,-0.13740,0.13740,-0.33588,-1.01318,0.07373,-0.14575,0.00,0.00,0.00
570,-0.26718,0.01527,-0.25191,-1.01660,0.08740,-0.13940,0.00,0.00,0.00
571,-0.16031,0.37405,-0.26718,-1.00977,0.07959,-0.14160,0.00,0.00,0.00
572,-0.18321,0.12214,-0.33588,-1.02734,0.07935,-0.15039,0.00,0.00,0.00
573,-0.03053,0.44275,-0.31298,-1.01294,0.07104,-0.14014,0.00,0.00,0.00
574,0.02290,0.38168,-0.19084,-1.01489,0.07813,-0.14038,0.00,0.00,0.00
575,0.02290,0.29008,-0.42748,-1.02002,0.07422,-0.13965,0.00,0.00,0.00
576,0.05344,0.45802,-0.29008,-1.02271,0.07837,-0.14673,0.00,0.00,0.00
577,0.12214,0.19847,-0.22137,-1.02124,0.07251,-0.14453,0.00,0.00,0.00
578,0.12977,0.44275,-0.37405,-1.02002,0.07910,-0.14233,0.00,0.00,0.00
579,0.32824,0.28244,-0.40458,-1.01172,0.07373,-0.14917,0.00,0.00,0.00
580,0.51145,0.32824,-0.43511,-1.01440,0.07153,-0.14648,0.00,0.00,0.00
581,0.49618,0.60305,-0.32061,-1.01855,0.07666,-0.14331,0.00,0.00,0.00
582,1.06870,0.41985,-0.32061,-1.02026,0.07446,-0.14795,0.00,0.00,0.00
583,0.95420,0.68702,-0.10687,-1.00903,0.07593,-0.13989,0.00,0.00,0.00
584,1.24427,0.52672,-0.06107,-1.01563,0.07715,-0.13818,0.00,0.00,0.00
585,1.12977,0.72519,-0.16031,-1.01660,0.07617,-0.14111,0.00,0.00,0.00
586,1.16031,0.75573,-0.02290,-1.00757,0.07813,-0.14087,0.00,0.00,0.00
587,1.08397,0.32824,-0.03053,-1.01636,0.07617,-0.14282,0.00,0.00,0.00
588,0.61069,0.29008,-0.01527,-1.01392,0.08374,-0.14478,0.00,0.00,0.00
589,0.17557,-0.05344,-0.09160,-1.01440,0.07764,-0.14355,0.00,0.00,0.00
590,-0.06870,0.11450,-0.25191,-1.00977,0.08203,-0.14209,0.00,0.00,0.00
591,-0.38168,0.25954,-0.25954,-1.01855,0.08643,-0.14478,0.00,0.00,0.00
592,-0.44275,0.29771,-0.45038,-1.01147,0.07813,-0.14136,0.00,0.00,0.00
593,-0.29771,0.41985,-0.42748,-1.01270,0.08008,-0.13428,0.00,0.00,0.00
594,-0.03053,0.29771,-0.43511,-1.01563,0.07959,-0.14429,0.00,0.00,0.00
595,-0.06870,0.51908,-0.44275,-1.01465,0.07764,-0.13818,0.00,0.00,0.00
596,0.06107,0.25954,-0.65649,-1.01587,0.07275,-0.14209,0.00,0.00,0.00
597,0.23664,0.46565,-0.47328,-1.00781,0.07031,-0.14551,0.00,0.00,0.00
598,0.13740,0.26718,-0.58015,-1.01416,0.08008,-0.14331,0.00,0.00,0.00
599,0.04580,0.02290,-0.66412,-1.01636,0.07666,-0.14478,0.00,0.00,0.00
600,0.19084,0.32824,-0.54198,-1.01392,0.07471,-0.13818,0.00,0.00,0.00
601,0.23664,0.39695,-0.42748,-1.01294,0.08008,-0.14160,0.00,0.00,0.00
602,-0.11450,0.17557,-0.35115,-1.02100,0.07446,-0.14429,0.00,0.00,0.00
603,-0.23664,0.26718,-0.13740,-1.01367,0.08105,-0.14551,0.00,0.00,0.00
604,-0.47328,0.28244,-0.25191,-1.01538,0.08130,-0.13647,0.00,0.00,0.00
605,-0.32824,0.19847,-0.36641,-1.01416,0.07715,-0.13892,0.00,0.00,0.00
606,-0.29008,0.16794,-0.43511,-1.01172,0.07568,-0.14600,0.00,0.00,0.00
607,-0.52672,0.04580,-0.19084,-1.01782,0.07739,-0.14429,0.00,0.00,0.00
608,-0.50382,-0.11450,-0.48855,-1.01318,0.07593,-0.14209,0.00,0.00,0.00
609,-0.74046,0.19084,-0.38168,-1.02002,0.08154,-0.14453,0.00,0.00,0.00
610,-0.63359,0.01527,-0.47328,-1.01123,0.07593,-0.14087,0.00,0.00,0.00
611,-0.62595,0.03053,-0.55725,-1.01196,0.07031,-0.13965,0.00,0.00,0.00
612,-0.56489,0.20611,-0.41221,-1.01221,0.07642,-0.13916,0.00,0.00,0.00
613,-0.70229,0.06870,-0.48855,-1.00952,0.08057,-0.13794,0.00,0.00,0.00
614,-1.03053,-0.13740,-0.63359,-1.01221,0.08057,-0.14185,0.00,0.00,0.00
615,-0.89313,-0.07634,-0.59542,-1.01343,0.07813,-0.14648,0.00,0.00,0.00
616,-0.67939,-0.10687,-0.61832,-1.01245,0.07739,-0.13940,0.00,0.00,0.00
617,-0.69466,-0.11450,-0.70992,-1.01929,0.07544,-0.13867,0.00,0.00,0.00
618,-0.41221,0.06107,-0.50382,-1.01660,0.07983,-0.13940,0.00,0.00,0.00
619,-0.33588,0.10687,-0.45038,-1.01929,0.07153,-0.13989,0.00,0.00,0.00
620,-0.22901,-0.04580,-0.24427,-1.01807,0.07178,-0.14526,0.00,0.00,0.00
621,-0.75573,0.20611,-0.03817,-1.01685,0.08154,-0.14502,0.00,0.00,0.00
622,-0.61832,0.00763,-0.25191,-1.01660,0.08008,-0.14722,0.00,0.00,0.00
623,-0.37405,0.00000,-0.29008,-1.01660,0.08081,-0.14795,0.00,0.00,0.00
624,-0.55725,0.13740,-0.06107,-1.01709,0.07666,-0.14038,0.00,0.00,0.00
625,-0.40458,-0.03053,0.00000,-1.01880,0.08081,-0.13770,0.00,0.00,0.00
626,-0.51908,-0.00763,-0.02290,-1.01587,0.07935,-0.14624,0.00,0.00,0.00
627,-0.54198,0.09160,-0.00763,-1.00928,0.07935,-0.14355,0.00,0.00,0.00
628,-0.74809,0.01527,-0.09924,-1.01343,0.08398,-0.13818,0.00,0.00,0.00
629,-0.74809,-0.05344,-0.19847,-1.01172,0.07544,-0.13623,0.00,0.00,0.00
630,-0.60305,0.16031,-0.33588,-1.01489,0.07666,-0.14648,0.00,0.00,0.00
631,-0.61832,0.27481,-0.13740,-1.01978,0.06909,-0.14819,0.00,0.00,0.00
632,-0.62595,0.27481,-0.22901,-1.01587,0.07764,-0.14917,0.00,0.00,0.00
633,-0.30534,0.16031,-0.11450,-1.01416,0.07813,-0.13770,0.00,0.00,0.00
634,-0.50382,0.05344,-0.09924,-1.01831,0.07275,-0.14404,0.00,0.00,0.00
635,-0.58779,-0.04580,0.07634,-1.01318,0.07495,-0.14282,0.00,0.00,0.00
636,-0.58015,-0.04580,-0.03053,-1.01172,0.07935,-0.14453,0.00,0.00,0.00
637,-0.56489,0.06107,0.07634,-1.01318,0.07910,-0.14502,0.00,0.00,0.00
638,-0.28244,0.06107,0.00000,-1.01367,0.07422,-0.14429,0.00,0.00,0.00
639,-0.46565,0.03053,-0.21374,-1.01660,0.07788,-0.14038,0.00,0.00,0.00
640,-0.53435,0.07634,-0.09924,-1.02002,0.07666,-0.15112,0.00,0.00,0.00
641,-0.49618,0.12977,0.00763,-1.01685,0.07983,-0.13818,0.00,0.00,0.00
642,-0.32061,-0.00763,0.19847,-1.01709,0.07422,-0.13379,0.00,0.00,0.00
643,-0.51145,0.10687,0.05344,-1.01294,0.07666,-0.14600,0.00,0.00,0.00
644,-0.38168,-0.06870,0.06107,-1.01050,0.08057,-0.14355,0.00,0.00,0.00
645,-0.12977,0.03817,0.11450,-1.01318,0.07837,-0.13770,0.00,0.00,0.00
646,-0.46565,-0.11450,-0.02290,-1.01123,0.08130,-0.14160,0.00,0.00,0.00
647,-0.45802,-0.00763,-0.03817,-1.01123,0.08154,-0.14673,0.00,0.00,0.00
648,-0.43511,0.01527,-0.12977,-1.01245,0.07422,-0.13965,0.00,0.00,0.00
649,-0.29771,0.07634,0.08397,-1.01489,0.07227,-0.14453,0.00,0.00,0.00
650,-0.42748,0.06870,-0.09924,-1.01099,0.07813,-0.14648,0.00,0.00,0.00
651,-0.36641,0.17557,-0.28244,-1.01611,0.07935,-0.13745,0.00,0.00,0.00
652,-0.35115,-0.14504,-0.44275,-1.01465,0.08008,-0.14160,0.00,0.00,0.00
653,-0.18321,0.06107,-0.28244,-1.01172,0.07983,-0.14966,0.00,0.00,0.00
654,-0.31298,0.06107,-0.29008,-1.01416,0.07764,-0.14648,0.00,0.00,0.00
655,-0.25191,0.01527,-0.38168,-1.01123,0.07739,-0.14917,0.00,0.00,0.00
656,-0.24427,0.14504,-0.35878,-1.01636,0.07544,-0.13818,0.00,0.00,0.00
657,-0.05344,0.15267,-0.46565,-1.00879,0.08179,-0.14233,0.00,0.00,0.00
658,-0.08397,0.08397,-0.51908,-1.01660,0.08105,-0.14478,0.00,0.00,0.00
659,0.18321,0.13740,-0.33588,-1.01294,0.07300,-0.15283,0.00,0.00,0.00
660,0.35878,-0.00763,-0.29771,-1.01514,0.08081,-0.14819,0.00,0.00,0.00
661,0.28244,0.24427,-0.41985,-1.01318,0.07788,-0.14160,0.00,0.00,0.00
662,-0.10687,-0.10687,-0.38168,-1.01440,0.07983,-0.14282,0.00,0.00,0.00
663,-0.15267,-0.15267,-0.32824,-1.00781,0.08032,-0.14014,0.00,0.00,0.00
664,-0.11450,-0.06870,-0.56489,-1.01685,0.07935,-0.13647,0.00,0.00,0.00
665,-0.19084,-0.44275,-0.38931,-1.01636,0.07568,-0.13818,0.00,0.00,0.00
666,-0.09924,0.06870,-0.54198,-1.01514,0.08008,-0.14575,0.00,0.00,0.00
667,-0.06870,-0.16794,-0.29008,-1.01074,0.07642,-0.13916,0.00,0.00,0.00
668,-0.04580,0.08397,-0.22137,-1.01563,0.07813,-0.13989,0.00,0.00,0.00
669,0.01527,-0.03053,-0.08397,-1.01099,0.07886,-0.15039,0.00,0.00,0.00
670,-0.19847,0.17557,-0.25191,-1.01685,0.07666,-0.14990,0.00,0.00,0.00
671,-0.08397,-0.12214,-0.21374,-1.01440,0.07422,-0.14160,0.00,0.00,0.00
672,-0.11450,-0.19084,-0.36641,-1.02148,0.07886,-0.14038,0.00,0.00,0.00
673,0.08397,-0.06107,-0.15267,-1.01074,0.07544,-0.14258,0.00,0.00,0.00
674,-0.25954,-0.02290,-0.19084,-1.01782,0.07422,-0.14282,0.00,0.00,0.00
675,0.00763,-0.19084,-0.31298,-1.01367,0.08179,-0.14258,0.00,0.00,0.00
676,-0.04580,-0.21374,-0.25954,-1.01611,0.07861,-0.14038,0.00,0.00,0.00
677,-0.07634,-0.15267,-0.36641,-1.00903,0.08032,-0.14063,0.00,0.00,0.00
678,-0.23664,-0.03817,-0.22901,-1.01416,0.07520,-0.14380,0.00,0.00,0.00
679,-0.10687,0.03053,-0.26718,-1.01440,0.07178,-0.14014,0.00,0.00,0.00
680,-0.31298,-0.08397,-0.17557,-1.01367,0.07495,-0.14429,0.00,0.00,0.00
681,-0.32824,-0.11450,-0.31298,-1.01782,0.07495,-0.14453,0.00,0.00,0.00
682,-0.14504,-0.22137,-0.29771,-1.01196,0.07690,-0.15283,0.00,0.00,0.00
683,-0.16794,-0.38931,-0.40458,-1.01318,0.07373,-0.14648,0.00,0.00,0.00
684,-0.10687,-0.09924,-0.21374,-1.00952,0.08008,-0.14917,0.00,0.00,0.00
685,-0.09160,-0.09160,-0.18321,-1.01392,0.07446,-0.13989,0.00,0.00,0.00
686,0.29771,-0.11450,-0.25191,-1.01343,0.08228,-0.13989,0.00,0.00,0.00
687,-0.12977,-0.26718,-0.12977,-1.01831,0.07471,-0.14453,0.00,0.00,0.00
688,0.06107,-0.22901,-0.09924,-1.01172,0.07568,-0.14111,0.00,0.00,0.00
689,-0.19847,-0.39695,-0.17557,-1.01733,0.07788,-0.14917,0.00,0.00,0.00
690,-0.09924,-0.27481,-0.07634,-1.01050,0.07349,-0.14819,0.00,0.00,0.00
691,0.01527,-0.30534,-0.26718,-1.00854,0.08081,-0.15112,0.00,0.00,0.00
692,0.02290,-0.37405,-0.27481,-1.01563,0.07788,-0.14185,0.00,0.00,0.00
693,0.00000,-0.26718,-0.25954,-1.01611,0.07910,-0.14453,0.00,0.00,0.00
694,0.03817,-0.18321,-0.12977,-1.02075,0.07422,-0.14380,0.00,0.00,0.00
695,-0.06107,-0.09924,-0.02290,-1.01343,0.08057,-0.14380,0.00,0.00,0.00
696,-0.23664,-0.09924,-0.25191,-1.01514,0.07495,-0.14160,0.00,0.00,0.00
697,0.01527,0.11450,-0.25954,-1.01465,0.07935,-0.14551,0.00,0.00,0.00
698,-0.33588,0.01527,0.01527,-1.01855,0.07568,-0.13477,0.00,0.00,0.00
699,-0.13740,-0.15267,-0.11450,-1.01611,0.07471,-0.14526,0.00,0.00,0.00
700,-0.18321,0.09924,-0.16794,-1.01514,0.07813,-0.14819,0.00,0.00,0.00
701,-0.12214,-0.14504,-0.15267,-1.01611,0.07666,-0.14331,0.00,0.00,0.00
702,-0.25191,-0.16031,-0.17557,-1.01392,0.07300,-0.14111,0.00,0.00,0.00
703,-0.33588,-0.31298,-0.12977,-1.01660,0.07813,-0.14478,0.00,0.00,0.00
704,-0.37405,-0.16794,-0.10687,-1.01367,0.07593,-0.14575,0.00,0.00,0.00
705,-0.23664,0.06870,-0.33588,-1.01196,0.07813,-0.12939,0.00,0.00,0.00
706,-0.27481,-0.06870,-0.14504,-1.01978,0.07642,-0.13867,0.00,0.00,0.00
707,-0.11450,-0.07634,-0.05344,-1.02075,0.07788,-0.14209,0.00,0.00,0.00
708,-0.51908,-0.20611,-0.09924,-1.02100,0.07861,-0.14087,0.00,0.00,0.00
709,-0.27481,-0.22137,-0.07634,-1.01172,0.07959,-0.14600,0.00,0.00,0.00
710,-0.51908,-0.23664,-0.28244,-1.01465,0.07983,-0.14233,0.00,0.00,0.00
711,-0.29771,0.09160,-0.16794,-1.01025,0.07910,-0.13525,0.00,0.00,0.00
712,-0.22901,-0.19847,-0.26718,-1.01807,0.08203,-0.13354,0.00,0.00,0.00
713,-0.21374,-0.19084,-0.15267,-1.01318,0.07593,-0.13892,0.00,0.00,0.00
714,-0.32824,-0.20611,-0.03053,-1.01660,0.07959,-0.14233,0.00,0.00,0.00
715,-0.28244,-0.24427,-0.18321,-1.01929,0.07739,-0.13965,0.00,0.00,0.00
716,-0.46565,-0.09160,-0.16794,-1.01489,0.07788,-0.14111,0.00,0.00,0.00
717,-0.16794,-0.22901,0.01527,-1.01782,0.07666,-0.14868,0.00,0.00,0.00
718,-0.36641,-0.10687,-0.04580,-1.01392,0.07983,-0.14453,0.00,0.00,0.00
719,-0.39695,-0.34351,0.07634,-1.01611,0.07935,-0.14380,0.00,0.00,0.00
720,-0.26718,-0.41985,-0.11450,-1.01367,0.07690,-0.14233,0.00,0.00,0.00
721,-0.43511,-0.47328,-0.06870,-1.01074,0.07837,-0.14526,0.00,0.00,0.00
722,-0.41221,-0.22901,-0.07634,-1.01245,0.07935,-0.13965,0.00,0.00,0.00
723,-0.21374,-0.39695,0.01527,-1.01855,0.07813,-0.14355,0.00,0.00,0.00
724,-0.41221,-0.06870,0.00000,-1.01392,0.08276,-0.14209,0.00,0.00,0.00
725,-0.32061,-0.36641,-0.06870,-1.01636,0.07495,-0.13770,0.00,0.00,0.00
726,-0.39695,-0.34351,-0.03053,-1.01758,0.08081,-0.14673,0.00,0.00,0.00
727,-0.27481,-0.10687,-0.09924,-1.01514,0.08105,-0.13916,0.00,0.00,0.00
728,-0.19847,-0.19084,-0.28244,-1.01587,0.07813,-0.13354,0.00,0.00,0.00
729,-0.39695,-0.29771,-0.22137,-1.01196,0.07886,-0.13647,0.00,0.00,0.00
730,-0.35878,-0.36641,-0.36641,-1.00952,0.07788,-0.14331,0.00,0.00,0.00
731,-0.38931,-0.34351,-0.09924,-1.01611,0.07959,-0.13794,0.00,0.00,0.00
732,-0.63359,-0.19847,-0.30534,-1.00537,0.08667,-0.14429,0.00,0.00,0.00
733,-0.50382,-0.28244,-0.24427,-1.01978,0.07324,-0.13721,0.00,0.00,0.00
734,-0.70229,-0.22901,-0.37405,-1.01465,0.07959,-0.13623,0.00,0.00,0.00
735,-0.62595,-0.06107,-0.21374,-1.01123,0.07495,-0.14038,0.00,0.00,0.00
736,-0.58015,-0.12977,-0.31298,-1.01440,0.07520,-0.14258,0.00,0.00,0.00
737,-0.77099,0.03053,-0.19847,-1.01074,0.07886,-0.13867,0.00,0.00,0.00
738,-0.64122,-0.09160,-0.13740,-1.02051,0.07275,-0.13843,0.00,0.00,0.00
739,-0.51145,0.01527,-0.08397,-1.01392,0.08081,-0.14624,0.00,0.00,0.00
740,-0.35878,-0.02290,-0.19847,-1.01221,0.07837,-0.14893,0.00,0.00,0.00
741,-0.59542,-0.02290,-0.13740,-1.01001,0.08618,-0.13599,0.00,0.00,0.00
742,-0.56489,-0.12214,-0.09160,-1.01611,0.08057,-0.13623,0.00,0.00,0.00
743,-0.67176,-0.11450,-0.07634,-1.01685,0.07080,-0.14355,0.00,0.00,0.00
744,-0.70229,-0.51145,-0.04580,-1.01831,0.07910,-0.13379,0.00,0.00,0.00
745,-0.45038,-0.18321,-0.09924,-1.01636,0.07178,-0.13452,0.00,0.00,0.00
746,-0.51908,-0.22901,0.01527,-1.01465,0.08252,-0.13989,0.00,0.00,0.00
747,-0.54198,-0.09924,0.11450,-1.01196,0.07886,-0.13843,0.00,0.00,0.00
748,-0.52672,0.03053,0.23664,-1.01465,0.08276,-0.14404,0.00,0.00,0.00
749,-0.40458,-0.17557,0.06107,-1.01709,0.07202,-0.13135,0.00,0.00,0.00
750,-0.48092,-0.18321,0.16794,-1.01831,0.07935,-0.14697,0.00,0.00,0.00
751,-0.51908,-0.28244,0.10687,-1.01660,0.08838,-0.13354,0.00,0.00,0.00
752,-0.35878,-0.26718,-0.01527,-1.01733,0.07544,-0.14648,0.00,0.00,0.00
753,-0.47328,-0.21374,-0.16031,-1.01514,0.08301,-0.14209,0.00,0.00,0.00
754,-0.32061,-0.21374,-0.03053,-1.01343,0.07617,-0.14136,0.00,0.00,0.00
755,-0.34351,-0.23664,-0.09924,-1.01538,0.08130,-0.14746,0.00,0.00,0.00
756,-0.47328,-0.18321,-0.15267,-1.01050,0.08350,-0.14966,0.00,0.00,0.00
757,-0.38168,-0.46565,0.08397,-1.01538,0.07935,-0.13696,0.00,0.00,0.00
758,-0.20611,-0.03053,-0.10687,-1.01367,0.08130,-0.13794,0.00,0.00,0.00
759,-0.22137,-0.35115,-0.26718,-1.01343,0.07568,-0.14258,0.00,0.00,0.00
760,-0.19847,-0.22137,-0.25191,-1.01294,0.08228,-0.13184,0.00,0.00,0.00
761,-0.44275,-0.40458,-0.19847,-1.01685,0.07568,-0.13525,0.00,0.00,0.00
762,-0.43511,-0.28244,-0.19847,-1.01221,0.07764,-0.13550,0.00,0.00,0.00
763,-0.22901,-0.06107,-0.11450,-1.01367,0.08154,-0.13965,0.00,0.00,0.00
764,-0.17557,-0.20611,-0.32061,-1.01611,0.07788,-0.13916,0.00,0.00,0.00
765,-0.04580,-0.48092,-0.18321,-1.01587,0.07666,-0.14087,0.00,0.00,0.00
766,-0.16794,-0.40458,-0.27481,-1.01196,0.07153,-0.14258,0.00,0.00,0.00
767,-0.14504,-0.17557,-0.05344,-1.01538,0.08032,-0.13818,0.00,0.00,0.00
768,-0.10687,-0.35878,-0.30534,-1.00903,0.07861,-0.14136,0.00,0.00,0.00
769,-0.17557,-0.24427,-0.35115,-1.01147,0.07813,-0.13940,0.00,0.00,0.00
770,-0.29771,-0.45038,-0.33588,-1.01685,0.07739,-0.13550,0.00,0.00,0.00
771,-0.08397,-0.19847,-0.25191,-1.01660,0.07813,-0.13501,0.00,0.00,0.00
772,-0.38168,-0.45802,-0.20611,-1.01245,0.07935,-0.13550,0.00,0.00,0.00
773,-0.19847,-0.17557,-0.42748,-1.01074,0.07642,-0.14233,0.00,0.00,0.00
774,-0.18321,-0.18321,-0.58779,-1.01074,0.08350,-0.14502,0.00,0.00,0.00
775,-0.12214,-0.08397,-0.58015,-1.01489,0.08472,-0.14258,0.00,0.00,0.00
776,-0.12214,-0.29771,-0.35115,-1.01050,0.07837,-0.13745,0.00,0.00,0.00
777,-0.32824,-0.19847,-0.64122,-1.02075,0.07617,-0.13672,0.00,0.00,0.00
778,-0.18321,-0.35878,-0.48092,-1.01172,0.08130,-0.14429,0.00,0.00,0.00
779,-0.25954,-0.18321,-0.65649,-1.01709,0.07544,-0.13525,0.00,0.00,0.00
780,-0.16031,-0.24427,-0.59542,-1.00830,0.07935,-0.14063,0.00,0.00,0.00
781,-0.12977,-0.30534,-0.40458,-1.01001,0.08130,-0.13428,0.00,0.00,0.00
782,-0.32061,-0.35115,-0.38168,-1.01172,0.08545,-0.13721,0.00,0.00,0.00
783,-0.39695,-0.25954,-0.40458,-1.01709,0.07617,-0.13794,0.00,0.00,0.00
784,-0.32061,-0.28244,-0.55725,-1.01904,0.07153,-0.13550,0.00,0.00,0.00
785,-0.47328,-0.16794,-0.57252,-1.00854,0.07593,-0.14355,0.00,0.00,0.00
786,-0.20611,-0.19084,-0.61069,-1.01953,0.07935,-0.13428,0.00,0.00,0.00
787,-0.13740,-0.34351,-0.61069,-1.01636,0.07056,-0.13892,0.00,0.00,0.00
788,-0.15267,-0.09160,-0.58779,-1.01074,0.07813,-0.13599,0.00,0.00,0.00
789,0.01527,-0.31298,-0.50382,-1.02173,0.08130,-0.13770,0.00,0.00,0.00
790,-0.03053,-0.36641,-0.47328,-1.01025,0.07593,-0.13672,0.00,0.00,0.00
791,0.06107,-0.51145,-0.47328,-1.01172,0.08154,-0.13940,0.00,0.00,0.00
792,-0.17557,-0.44275,-0.58779,-1.01245,0.07764,-0.13281,0.00,0.00,0.00
793,-0.00763,-0.15267,-0.58015,-1.01807,0.07422,-0.13745,0.00,0.00,0.00
794,0.13740,-0.32061,-0.45802,-1.01807,0.07520,-0.13086,0.00,0.00,0.00
795,-0.01527,-0.19084,-0.54962,-1.01831,0.08862,-0.13672,0.00,0.00,0.00
796,0.15267,-0.28244,-0.25954,-1.01294,0.08081,-0.14453,0.00,0.00,0.00
797,-0.04580,-0.02290,-0.26718,-1.01709,0.07495,-0.14673,0.00,0.00,0.00
798,0.04580,-0.50382,-0.25191,-1.01172,0.07422,-0.14160,0.00,0.00,0.00
799,-0.02290,-0.35115,-0.29771,-1.01636,0.07959,-0.13745,0.00,0.00,0.00
800,0.22137,-0.51908,-0.40458,-1.01733,0.07544,-0.13647,0.00,0.00,0.00
801,0.19847,-0.32061,-0.40458,-1.01294,0.08472,-0.13281,0.00,0.00,0.00
802,0.15267,-0.41221,-0.28244,-1.01904,0.07495,-0.12988,0.00,0.00,0.00
803,0.11450,-0.06870,-0.41985,-1.01294,0.07642,-0.14673,0.00,0.00,0.00
804,0.17557,-0.31298,-0.25954,-1.01563,0.07642,-0.14429,0.00,0.00,0.00
805,0.18321,-0.39695,-0.29771,-1.01123,0.07178,-0.13525,0.00,0.00,0.00
806,0.14504,-0.39695,-0.37405,-1.01270,0.07861,-0.13989,0.00,0.00,0.00
807,0.07634,-0.35115,-0.48855,-1.01904,0.08398,-0.14038,0.00,0.00,0.00
808,-0.08397,-0.24427,-0.39695,-1.01782,0.07837,-0.13965,0.00,0.00,0.00
809,-0.04580,-0.58015,-0.54962,-1.01196,0.07568,-0.13965,0.00,0.00,0.00
810,-0.19084,-0.39695,-0.51908,-1.01343,0.08301,-0.14331,0.00,0.00,0.00
811,0.09924,-0.25191,-0.56489,-1.01221,0.07568,-0.13574,0.00,0.00,0.00
812,0.04580,-0.22137,-0.55725,-1.01563,0.07666,-0.13599,0.00,0.00,0.00
813,0.08397,-0.27481,-0.45038,-1.01172,0.07837,-0.14063,0.00,0.00,0.00
814,0.07634,-0.18321,-0.54198,-1.01758,0.08057,-0.14038,0.00,0.00,0.00
815,-0.29771,-0.46565,-0.74046,-1.00562,0.07690,-0.13989,0.00,0.00,0.00
816,0.06107,-0.32824,-0.51145,-1.01514,0.07397,-0.14551,0.00,0.00,0.00
817,0.06107,-0.22901,-0.70229,-1.01733,0.07080,-0.13843,0.00,0.00,0.00
818,0.06870,-0.29008,-0.37405,-1.01611,0.08032,-0.13159,0.00,0.00,0.00
819,0.32824,-0.42748,-0.49618,-1.01855,0.07788,-0.13940,0.00,0.00,0.00
820,0.37405,-0.36641,-0.39695,-1.01221,0.07373,-0.14014,0.00,0.00,0.00
821,0.18321,-0.16794,-0.42748,-1.01074,0.07690,-0.13989,0.00,0.00,0.00
822,0.33588,-0.41985,-0.41221,-1.01733,0.07861,-0.13208,0.00,0.00,0.00
823,0.01527,-0.30534,-0.51908,-1.01636,0.07495,-0.13379,0.00,0.00,0.00
824,0.36641,-0.12977,-0.47328,-1.01367,0.07471,-0.13428,0.00,0.00,0.00
825,0.31298,-0.32061,-0.42748,-1.01416,0.07324,-0.13550,0.00,0.00,0.00
826,0.18321,-0.30534,-0.20611,-1.01587,0.07104,-0.13550,0.00,0.00,0.00
827,0.16794,-0.32824,-0.25954,-1.01392,0.07666,-0.13232,0.00,0.00,0.00
828,0.14504,-0.14504,-0.27481,-1.01978,0.08081,-0.13940,0.00,0.00,0.00
829,0.31298,-0.22901,-0.29008,-1.01440,0.07910,-0.13354,0.00,0.00,0.00
830,0.20611,-0.12214,-0.31298,-1.01465,0.07788,-0.13135,0.00,0.00,0.00
831,0.09924,-0.06870,-0.32061,-1.01514,0.08105,-0.12964,0.00,0.00,0.00
832,0.05344,0.00000,-0.34351,-1.01587,0.07495,-0.13770,0.00,0.00,0.00
833,0.06107,0.17557,-0.49618,-1.01465,0.07275,-0.13525,0.00,0.00,0.00
834,0.04580,0.11450,-0.47328,-1.00903,0.07520,-0.14087,0.00,0.00,0.00
835,-0.28244,0.12977,-0.15267,-1.01001,0.07617,-0.13403,0.00,0.00,0.00
836,-0.07634,0.01527,-0.48855,-1.01855,0.07251,-0.13062,0.00,0.00,0.00
837,0.00000,-0.08397,-0.57252,-1.02075,0.07886,-0.14038,0.00,0.00,0.00
838,-0.00763,0.19084,-0.53435,-1.01587,0.06982,-0.13477,0.00,0.00,0.00
839,0.01527,-0.15267,-0.48855,-1.01172,0.06689,-0.14160,0.00,0.00,0.00
840,-0.01527,0.04580,-0.42748,-1.01611,0.07202,-0.13086,0.00,0.00,0.00
841,-0.06107,0.20611,-0.46565,-1.01733,0.07202,-0.12744,0.00,0.00,0.00
842,-0.11450,0.17557,-0.49618,-1.01733,0.07886,-0.13989,0.00,0.00,0.00
843,0.35878,0.35878,-0.62595,-1.01318,0.07471,-0.13428,0.00,0.00,0.00
844,0.21374,0.14504,-0.41221,-1.01709,0.07349,-0.13745,0.00,0.00,0.00
845,0.24427,0.09924,-0.51908,-1.01611,0.07617,-0.13892,0.00,0.00,0.00
846,0.13740,0.11450,-0.49618,-1.02075,0.07080,-0.13965,0.00,0.00,0.00
847,0.00763,0.24427,-0.58015,-1.01709,0.07910,-0.13745,0.00,0.00,0.00
848,-0.14504,0.24427,-0.45038,-1.01416,0.07764,-0.13550,0.00,0.00,0.00
849,-0.06107,0.06107,-0.48092,-1.01685,0.07471,-0.13721,0.00,0.00,0.00
850,-0.09160,0.20611,-0.63359,-1.01855,0.07007,-0.13672,0.00,0.00,0.00
851,0.01527,0.20611,-0.62595,-1.01221,0.07813,-0.14038,0.00,0.00,0.00
852,-0.08397,0.09924,-0.80916,-1.01782,0.07520,-0.13086,0.00,0.00,0.00
853,-0.18321,0.12977,-0.53435,-1.02148,0.07080,-0.13428,0.00,0.00,0.00
854,0.10687,0.06870,-0.60305,-1.01733,0.08179,-0.12988,0.00,0.00,0.00
855,0.07634,-0.00763,-0.64885,-1.01465,0.07935,-0.13623,0.00,0.00,0.00
856,0.15267,0.03053,-0.62595,-1.01416,0.07666,-0.13892,0.00,0.00,0.00
857,-0.06870,0.25954,-0.77863,-1.01782,0.07056,-0.14331,0.00,0.00,0.00
858,-0.03817,-0.09160,-0.77099,-1.02246,0.07080,-0.13745,0.00,0.00,0.00
859,0.00763,-0.09160,-0.59542,-1.01807,0.07568,-0.14526,0.00,0.00,0.00
860,0.07634,-0.08397,-0.68702,-1.01636,0.07568,-0.13330,0.00,0.00,0.00
861,0.04580,-0.04580,-0.66412,-1.01318,0.07520,-0.13574,0.00,0.00,0.00
862,-0.10687,0.06107,-0.74046,-1.01196,0.07739,-0.13672,0.00,0.00,0.00
863,0.16794,-0.02290,-0.58015,-1.01685,0.07520,-0.13574,0.00,0.00,0.00
864,0.18321,0.03817,-1.00000,-1.01343,0.07886,-0.13574,0.00,0.00,0.00
865,0.00763,-0.00763,-0.88550,-1.01245,0.07373,-0.12866,0.00,0.00,0.00
866,-0.10687,0.04580,-0.80153,-1.01563,0.07666,-0.14209,0.00,0.00,0.00
867,-0.11450,-0.07634,-1.08397,-1.01831,0.07397,-0.12842,0.00,0.00,0.00
868,0.29771,-0.02290,-0.91603,-1.01270,0.06909,-0.13477,0.00,0.00,0.00
869,0.06870,0.00000,-1.06870,-1.01685,0.06006,-0.14233,0.00,0.00,0.00
870,0.29771,0.13740,-0.77099,-1.01685,0.07739,-0.14160,0.00,0.00,0.00
871,0.03817,-0.05344,-1.14504,-1.02124,0.07959,-0.13574,0.00,0.00,0.00
872,-0.09924,0.19084,-1.16794,-1.01270,0.07520,-0.14722,0.00,0.00,0.00
873,-0.20611,0.23664,-1.24427,-1.01025,0.07007,-0.13257,0.00,0.00,0.00
874,-0.20611,0.37405,-1.11450,-1.01660,0.07129,-0.13208,0.00,0.00,0.00
875,0.07634,0.35115,-0.96183,-1.01587,0.06592,-0.13892,0.00,0.00,0.00
876,-0.29008,0.33588,-1.00000,-1.01758,0.06519,-0.13647,0.00,0.00,0.00
877,-0.27481,0.14504,-0.76336,-1.02148,0.07275,-0.14233,0.00,0.00,0.00
878,-0.21374,-0.03817,-0.87023,-1.01733,0.07544,-0.13696,0.00,0.00,0.00
879,0.02290,-0.14504,-0.83969,-1.01587,0.06958,-0.14697,0.00,0.00,0.00
880,0.27481,0.01527,-0.93893,-1.01880,0.07617,-0.13428,0.00,0.00,0.00
881,0.14504,0.03053,-1.03817,-1.01001,0.07300,-0.14136,0.00,0.00,0.00
882,0.33588,0.16794,-0.83969,-1.01001,0.06787,-0.12891,0.00,0.00,0.00
883,0.66412,-0.30534,-0.78626,-1.01514,0.07275,-0.13037,0.00,0.00,0.00
884,0.70992,-0.02290,-0.61832,-1.00732,0.06665,-0.14087,0.00,0.00,0.00
885,0.51908,-0.12214,-0.58779,-1.01514,0.07617,-0.13696,0.00,0.00,0.00
886,0.34351,-0.00763,-0.83969,-1.01001,0.06958,-0.13403,0.00,0.00,0.00
887,0.22137,-0.11450,-0.80153,-1.01514,0.06812,-0.13745,0.00,0.00,0.00
888,0.06870,-0.32824,-0.70992,-1.01636,0.07422,-0.13379,0.00,0.00,0.00
889,0.15267,-0.15267,-0.71756,-1.01782,0.06982,-0.13525,0.00,0.00,0.00
890,0.35878,-0.09924,-0.63359,-1.01147,0.07642,-0.14160,0.00,0.00,0.00
891,0.18321,-0.06870,-0.68702,-1.01465,0.07104,-0.13330,0.00,0.00,0.00
892,0.10687,-0.31298,-0.77099,-1.01733,0.07764,-0.14136,0.00,0.00,0.00
893,-0.13740,-0.31298,-1.00763,-1.01929,0.07397,-0.14282,0.00,0.00,0.00
894,-0.10687,-0.38931,-0.97710,-1.01831,0.07031,-0.12793,0.00,0.00,0.00
895,-0.16794,-0.32824,-1.22137,-1.02051,0.06885,-0.13867,0.00,0.00,0.00
896,-0.02290,-0.12977,-1.32824,-1.01514,0.06738,-0.12964,0.00,0.00,0.00
897,0.10687,-0.15267,-1.17557,-1.01514,0.06641,-0.14087,0.00,0.00,0.00
898,0.12214,-0.13740,-1.22137,-1.01563,0.07373,-0.14258,0.00,0.00,0.00
899,-0.05344,-0.05344,-1.38931,-1.02002,0.07080,-0.13428,0.00,0.00,0.00
900,-0.09924,-0.15267,-1.32061,-1.02002,0.07104,-0.13574,0.00,0.00,0.00
901,0.15267,-0.26718,-1.26718,-1.01416,0.07349,-0.14185,0.00,0.00,0.00
902,0.11450,-0.13740,-1.11450,-1.01294,0.07153,-0.13599,0.00,0.00,0.00
903,0.21374,-0.12214,-0.98473,-1.01538,0.06689,-0.13794,0.00,0.00,0.00
904,0.38931,-0.16794,-1.13740,-1.01294,0.07007,-0.13062,0.00,0.00,0.00
905,0.05344,-0.25954,-0.98473,-1.01929,0.06885,-0.13428,0.00,0.00,0.00
906,0.08397,-0.27481,-0.89313,-1.02319,0.07031,-0.13403,0.00,0.00,0.00
907,0.16794,-0.17557,-0.93893,-1.01733,0.07202,-0.12573,0.00,0.00,0.00
908,0.09924,-0.07634,-0.90840,-1.01563,0.06836,-0.13599,0.00,0.00,0.00
909,0.00763,0.06870,-1.09924,-1.01587,0.06201,-0.13281,0.00,0.00,0.00
910,-0.07634,-0.08397,-0.95420,-1.01270,0.06787,-0.13086,0.00,0.00,0.00
911,-0.04580,-0.08397,-1.03817,-1.01855,0.07129,-0.13940,0.00,0.00,0.00
912,0.04580,-0.06107,-0.98473,-1.01514,0.06226,-0.12891,0.00,0.00,0.00
913,0.08397,-0.01527,-0.94656,-1.02100,0.06812,-0.13379,0.00,0.00,0.00
914,0.39695,0.11450,-1.01527,-1.01611,0.06714,-0.13330,0.00,0.00,0.00
915,0.09924,-0.27481,-1.00763,-1.01709,0.06738,-0.13525,0.00,0.00,0.00
916,0.13740,-0.00763,-1.06870,-1.01294,0.06616,-0.13916,0.00,0.00,0.00
917,0.09160,-0.24427,-1.06107,-1.02295,0.07446,-0.13892,0.00,0.00,0.00
918,0.19847,-0.28244,-0.97710,-1.01978,0.05933,-0.13232,0.00,0.00,0.00
919,0.42748,-0.32061,-0.92366,-1.01343,0.07056,-0.13306,0.00,0.00,0.00
920,0.44275,-0.25954,-0.88550,-1.01660,0.07422,-0.13843,0.00,0.00,0.00
921,0.46565,-0.07634,-0.97710,-1.01563,0.06104,-0.13062,0.00,0.00,0.00
922,0.51908,0.06107,-0.79389,-1.01758,0.06128,-0.14087,0.00,0.00,0.00
923,0.74046,0.03817,-0.83206,-1.01367,0.07227,-0.13110,0.00,0.00,0.00
924,0.78626,0.07634,-0.87786,-1.01465,0.06421,-0.13062,0.00,0.00,0.00
925,0.70992,0.06870,-0.77099,-1.01392,0.06201,-0.13794,0.00,0.00,0.00
926,0.87023,0.22901,-0.67176,-1.01440,0.06445,-0.13208,0.00,0.00,0.00
927,1.27481,0.12977,-0.59542,-1.01685,0.06421,-0.12939,0.00,0.00,0.00
928,1.58779,0.22137,-0.25191,-1.01489,0.06226,-0.13647,0.00,0.00,0.00
929,1.84733,0.38931,-0.10687,-1.02051,0.07007,-0.13403,0.00,0.00,0.00
930,2.27481,0.60305,-0.03053,-1.01367,0.06470,-0.13916,0.00,0.00,0.00
931,2.47328,0.36641,0.12977,-1.01807,0.07275,-0.13745,0.00,0.00,0.00
932,2.26718,0.54962,0.16031,-1.01001,0.05859,-0.15015,0.00,0.00,0.00
933,2.69466,0.43511,0.45038,-1.01563,0.06787,-0.14282,0.00,0.00,0.00
934,2.17557,0.17557,0.63359,-1.02100,0.06274,-0.13306,0.00,0.00,0.00
935,1.10687,-0.12214,0.73282,-1.00854,0.07251,-0.13989,0.00,0.00,0.00
936,0.50382,0.09924,0.89313,-1.01855,0.07227,-0.13501,0.00,0.00,0.00
937,0.38931,0.26718,0.75573,-1.01196,0.06812,-0.13208,0.00,0.00,0.00
938,-0.06870,0.38931,0.51145,-1.01563,0.07275,-0.14282,0.00,0.00,0.00
939,-0.20611,0.04580,0.57252,-1.01465,0.06470,-0.13867,0.00,0.00,0.00
940,-0.25954,-0.01527,0.38931,-1.01709,0.06860,-0.14136,0.00,0.00,0.00
941,0.50382,-0.09924,0.40458,-1.01660,0.06348,-0.13501,0.00,0.00,0.00
942,0.82443,0.04580,0.25191,-1.01489,0.06274,-0.13818,0.00,0.00,0.00
943,1.58015,0.02290,0.15267,-1.01733,0.06323,-0.12915,0.00,0.00,0.00
944,1.85496,0.28244,0.25954,-1.01733,0.06567,-0.14380,0.00,0.00,0.00
945,2.51908,0.00000,0.19084,-1.01147,0.06592,-0.14429,0.00,0.00,0.00
946,2.53435,-0.03053,0.11450,-1.00977,0.06934,-0.13501,0.00,0.00,0.00
947,2.51908,0.03053,-0.02290,-1.01465,0.06616,-0.14233,0.00,0.00,0.00
948,2.35115,0.47328,-0.24427,-1.01489,0.06689,-0.13428,0.00,0.00,0.00
949,1.90076,0.50382,-0.02290,-1.01514,0.06372,-0.12842,0.00,0.00,0.00
950,1.38168,0.43511,-0.15267,-1.01733,0.07227,-0.13452,0.00,0.00,0.00
951,0.98473,0.53435,0.22137,-1.01831,0.07275,-0.13306,0.00,0.00,0.00
952,0.00000,0.74046,0.10687,-1.01538,0.06787,-0.13599,0.00,0.00,0.00
953,-0.27481,0.75573,0.09160,-1.01514,0.07007,-0.13184,0.00,0.00,0.00
954,-0.21374,1.16794,-0.03817,-1.01489,0.06763,-0.13281,0.00,0.00,0.00
955,-0.22137,0.98473,-0.04580,-1.01123,0.06982,-0.13428,0.00,0.00,0.00
956,0.19084,0.78626,-0.23664,-1.02148,0.06860,-0.13672,0.00,0.00,0.00
957,0.59542,0.51908,-0.01527,-1.01880,0.07104,-0.13159,0.00,0.00,0.00
958,0.45038,0.62595,-0.09160,-1.01563,0.06836,-0.13989,0.00,0.00,0.00
959,0.12977,0.57252,-0.29771,-1.01978,0.06494,-0.13843,0.00,0.00,0.00
960,-0.42748,0.56489,-0.42748,-1.01514,0.07275,-0.13794,0.00,0.00,0.00
961,-0.59542,0.44275,-0.57252,-1.01733,0.07593,-0.13770,0.00,0.00,0.00
962,-0.44275,0.22901,-0.82443,-1.01831,0.06323,-0.14038,0.00,0.00,0.00
963,-0.35878,0.58015,-0.87023,-1.02197,0.06934,-0.13477,0.00,0.00,0.00
964,-0.26718,0.51145,-0.96947,-1.01270,0.06934,-0.13989,0.00,0.00,0.00
965,-0.03817,0.59542,-0.90076,-1.02026,0.06812,-0.13867,0.00,0.00,0.00
966,0.08397,0.80153,-1.05344,-1.01123,0.06348,-0.14014,0.00,0.00,0.00
967,0.25191,0.61069,-1.10687,-1.01465,0.07104,-0.14893,0.00,0.00,0.00
968,0.29771,0.38168,-1.08397,-1.01147,0.06323,-0.14502,0.00,0.00,0.00
969,-0.26718,0.34351,-0.87023,-1.01904,0.07300,-0.14209,0.00,0.00,0.00
970,-0.54198,0.51145,-0.93130,-1.01831,0.06958,-0.14111,0.00,0.00,0.00
971,-0.29771,0.49618,-0.88550,-1.02344,0.06201,-0.13965,0.00,0.00,0.00
972,-0.00763,0.33588,-1.02290,-1.01538,0.06348,-0.13184,0.00,0.00,0.00
973,0.15267,0.22901,-0.81679,-1.01172,0.06714,-0.14429,0.00,0.00,0.00
974,-0.00763,0.32061,-0.72519,-1.01636,0.06982,-0.13867,0.00,0.00,0.00
975,0.41985,0.22901,-0.64885,-1.01099,0.05933,-0.14185,0.00,0.00,0.00
976,0.38168,0.70229,-0.49618,-1.01880,0.05981,-0.14111,0.00,0.00,0.00
977,0.69466,0.38168,-0.39695,-1.01221,0.06470,-0.14307,0.00,0.00,0.00
978,0.51145,0.30534,-0.11450,-1.01514,0.06299,-0.14282,0.00,0.00,0.00
979,0.46565,0.45802,-0.27481,-1.01636,0.07080,-0.14722,0.00,0.00,0.00
980,0.44275,0.62595,-0.10687,-1.01685,0.06177,-0.13623,0.00,0.00,0.00
981,1.00000,0.35115,-0.40458,-1.01733,0.06909,-0.14063,0.00,0.00,0.00
982,1.17557,0.56489,-0.35115,-1.01514,0.06641,-0.13647,0.00,0.00,0.00
983,0.97710,0.20611,-0.37405,-1.01636,0.06689,-0.13672,0.00,0.00,0.00
984,1.02290,0.31298,-0.27481,-1.01172,0.06787,-0.13818,0.00,0.00,0.00
985,0.69466,0.82443,-0.36641,-1.01611,0.06226,-0.14063,0.00,0.00,0.00
986,0.48855,0.61069,-0.34351,-1.01392,0.06543,-0.14600,0.00,0.00,0.00
987,0.34351,0.54962,-0.24427,-1.02002,0.06519,-0.14722,0.00,0.00,0.00
988,0.07634,0.48855,-0.23664,-1.01343,0.06543,-0.13989,0.00,0.00,0.00
989,-0.16031,0.49618,0.10687,-1.01685,0.06616,-0.14209,0.00,0.00,0.00
990,0.24427,0.64122,-0.12977,-1.01953,0.06226,-0.13867,0.00,0.00,0.00
991,0.16031,0.69466,0.32824,-1.02100,0.06934,-0.14648,0.00,0.00,0.00
992,0.14504,0.51145,0.35115,-1.02466,0.06104,-0.13770,0.00,0.00,0.00
993,-0.06870,0.89313,0.19847,-1.00952,0.06982,-0.14697,0.00,0.00,0.00
994,-0.05344,0.93893,0.02290,-1.01367,0.06860,-0.13525,0.00,0.00,0.00
995,0.22137,1.19084,0.11450,-1.01318,0.06274,-0.14697,0.00,0.00,0.00
996,0.07634,0.77099,0.17557,-1.01758,0.06543,-0.14478,0.00,0.00,0.00
997,-0.40458,0.28244,0.00000,-1.01416,0.06543,-0.14795,0.00,0.00,0.00
998,-0.74809,0.51908,-0.05344,-1.01270,0.06982,-0.14185,0.00,0.00,0.00
999,-1.12214,0.54962,-0.40458,-1.01123,0.06177,-0.14185,0.00,0.00,0.00
1000,-1.12977,0.61832,-0.48092,-1.01245,0.06860,-0.14551,0.00,0.00,0.00
1001,-1.06107,0.34351,-0.72519,-1.01123,0.06714,-0.14282,0.00,0.00,0.00
1002,-0.74809,0.24427,-0.74046,-1.01538,0.06421,-0.15112,0.00,0.00,0.00
1003,-0.80916,0.13740,-1.05344,-1.00977,0.06421,-0.13770,0.00,0.00,0.00
1004,-0.47328,-0.01527,-0.91603,-1.01465,0.06128,-0.14258,0.00,0.00,0.00
1005,-0.27481,0.03053,-1.08397,-1.01563,0.06567,-0.14331,0.00,0.00,0.00
1006,-0.60305,0.03053,-1.12977,-1.01440,0.06763,-0.13892,0.00,0.00,0.00
1007,-1.06107,-0.10687,-1.13740,-1.01392,0.06641,-0.13916,0.00,0.00,0.00
1008,-1.12977,-0.03817,-1.32061,-1.01685,0.06616,-0.15039,0.00,0.00,0.00
1009,-1.10687,0.03817,-1.38168,-1.01587,0.06274,-0.13721,0.00,0.00,0.00
1010,-1.09160,-0.15267,-1.38168,-1.01733,0.06738,-0.14478,0.00,0.00,0.00
1011,-0.38168,-0.26718,-1.19084,-1.00854,0.06445,-0.14014,0.00,0.00,0.00
1012,-0.05344,-0.29008,-1.36641,-1.02002,0.05908,-0.14136,0.00,0.00,0.00
1013,-0.04580,-0.38168,-1.16794,-1.01416,0.06055,-0.14453,0.00,0.00,0.00
1014,0.19084,-0.17557,-1.20611,-1.01685,0.06226,-0.14624,0.00,0.00,0.00
1015,-0.11450,-0.38168,-1.29008,-1.01709,0.06079,-0.14966,0.00,0.00,0.00
1016,-0.21374,-0.63359,-1.41221,-1.01123,0.05811,-0.15161,0.00,0.00,0.00
1017,-0.35115,-0.39695,-1.41221,-1.02295,0.05884,-0.14038,0.00,0.00,0.00
1018,-0.07634,-0.48855,-1.66412,-1.01904,0.05981,-0.14307,0.00,0.00,0.00
1019,-0.17557,-0.38168,-1.42748,-1.01611,0.06445,-0.13965,0.00,0.00,0.00
1020,-0.13740,-0.25191,-1.37405,-1.01538,0.06665,-0.13843,0.00,0.00,0.00
1021,-0.87023,-0.88550,-1.35878,-1.01807,0.06055,-0.14282,0.00,0.00,0.00
1022,-1.79389,-0.93130,-1.06870,-1.01392,0.07568,-0.13721,0.00,0.00,0.00
1023,-2.51908,-0.58779,-1.39695,-1.00830,0.07202,-0.12256,0.00,0.00,0.00
1024,-4.06870,0.30534,-1.39695,-1.01563,0.06079,-0.12231,0.00,0.00,0.00
1025,-5.29008,0.67176,-1.22901,-1.01807,0.07031,-0.13281,0.00,0.00,0.00
1026,-6.16794,1.29008,-1.17557,-1.02173,0.06226,-0.13403,0.00,0.00,0.00
1027,-6.43511,0.74809,-0.85496,-1.01904,0.06274,-0.14282,0.00,0.00,0.00
1028,-6.37405,0.11450,-1.01527,-1.01855,0.06470,-0.15112,0.00,0.00,0.00
1029,-6.59542,-0.87023,-1.38931,-1.01831,0.06299,-0.15039,0.00,0.00,0.00
1030,-7.00763,-2.14504,-1.87786,-1.01392,0.06030,-0.15161,0.00,0.00,0.00
1031,-6.47328,-2.58779,-2.57252,-1.01147,0.05664,-0.15088,0.00,0.00,0.00
1032,-4.47328,-2.70229,-3.13740,-1.02246,0.05078,-0.15308,0.00,0.00,0.00
1033,-2.96947,-3.03053,-3.70992,-1.01929,0.05688,-0.14624,0.00,0.00,0.00
1034,-1.20611,-3.31298,-4.21374,-1.01709,0.05664,-0.13867,0.00,0.00,0.00
1035,0.41985,-3.42748,-4.38931,-1.02319,0.05762,-0.13867,0.00,0.00,0.00
1036,0.93130,-3.61832,-4.84733,-1.02319,0.04834,-0.14185,0.00,0.00,0.00
1037,0.87786,-3.91603,-4.64122,-1.02295,0.06494,-0.13403,0.00,0.00,0.00
1038,0.58779,-3.56489,-4.80153,-1.02148,0.06030,-0.14966,0.00,0.00,0.00
1039,0.62595,-3.72519,-4.67939,-1.02417,0.05762,-0.12988,0.00,0.00,0.00
1040,0.78626,-4.12214,-4.70992,-1.02148,0.05640,-0.14453,0.00,0.00,0.00
1041,1.19847,-4.19847,-4.95420,-1.02100,0.05200,-0.14502,0.00,0.00,0.00
1042,1.71756,-5.11450,-4.87023,-1.01807,0.05542,-0.14746,0.00,0.00,0.00
1043,1.57252,-5.29771,-5.18321,-1.02515,0.05786,-0.14087,0.00,0.00,0.00
1044,1.67176,-5.74046,-5.46565,-1.01563,0.06543,-0.14429,0.00,0.00,0.00
1045,1.70992,-5.67176,-6.04580,-1.01660,0.06030,-0.13599,0.00,0.00,0.00
1046,1.28244,-5.92366,-6.77099,-1.01563,0.06128,-0.13110,0.00,0.00,0.00
1047,0.78626,-6.43511,-7.54962,-1.02759,0.05298,-0.12744,0.00,0.00,0.00
1048,0.38931,-6.54198,-8.48092,-1.02490,0.05396,-0.13086,0.00,0.00,0.00
1049,0.06870,-6.28244,-9.56488,-1.02856,0.06396,-0.12720,0.00,0.00,0.00
1050,-0.06870,-6.17557,-10.95420,-1.02148,0.06250,-0.13110,0.00,0.00,0.00
1051,-0.17557,-6.34351,-11.77099,-1.02393,0.06445,-0.14209,0.00,0.00,0.00
1052,-0.19084,-6.64885,-13.06107,-1.02515,0.05176,-0.13867,0.00,0.00,0.00
1053,0.56489,-7.26718,-14.53435,-1.02881,0.04443,-0.12939,0.00,0.00,0.00
1054,0.84733,-7.41985,-16.34351,-1.02734,0.04541,-0.12500,0.00,0.00,0.00
1055,1.16031,-7.51145,-17.84733,-1.01807,0.05591,-0.12158,0.00,0.00,0.00
1056,1.15267,-7.83206,-19.87786,-1.02490,0.05347,-0.12134,0.00,0.00,0.00
1057,1.42748,-7.75573,-21.77863,-1.01904,0.04346,-0.11792,0.00,0.00,0.00
1058,1.73282,-7.59542,-24.22901,-1.02490,0.04102,-0.11743,0.00,0.00,0.00
1059,2.06870,-7.46565,-27.25191,-1.02417,0.03784,-0.10840,0.00,0.00,0.00
1060,2.19847,-7.25191,-30.39695,-1.01782,0.03516,-0.10596,0.00,0.00,0.00
1061,2.78626,-6.61069,-33.19084,-1.01831,0.02759,-0.09961,0.00,0.00,0.00
1062,3.62595,-6.46565,-36.63359,-1.02100,0.02905,-0.09839,0.00,0.00,0.00
1063,4.47328,-5.44275,-40.69466,-1.02563,0.01343,-0.09351,0.00,0.00,0.00
1064,5.56489,-4.60305,-45.06107,-1.03589,0.01001,-0.09619,0.00,0.00,0.00
1065,6.40458,-3.77099,-49.00763,-1.03369,0.01562,-0.07495,0.00,0.00,0.00
1066,6.70229,-3.06107,-53.86259,-1.02979,-0.00220,-0.08569,0.00,0.00,0.00
1067,8.35878,-2.48092,-59.14504,-1.03809,-0.01099,-0.08228,0.00,0.00,0.00
1068,9.64122,-1.82443,-64.86260,-1.05933,-0.01123,-0.08765,0.00,0.00,0.00
1069,11.29008,-1.10687,-71.23664,-1.08594,-0.02222,-0.07715,0.00,0.00,0.00
1070,12.83206,-0.67939,-77.58016,-1.10010,-0.03149,-0.07031,0.00,0.00,0.00
1071,15.87023,-0.84733,-83.90840,-1.09644,-0.03345,-0.08252,0.00,0.00,0.00
1072,18.22138,-1.06107,-89.01527,-1.12329,-0.03052,-0.10400,0.00,0.00,0.00
1073,21.45802,-0.55725,-93.68702,-1.16162,-0.04004,-0.10376,0.00,0.00,0.00
1074,24.77863,0.28244,-95.94657,-1.18652,-0.06226,-0.10181,0.00,0.00,0.00
1075,29.50382,1.48092,-97.40458,-1.21631,-0.10425,-0.09937,0.00,0.00,0.00
1076,33.05344,2.32061,-96.79389,-1.27905,-0.09399,-0.07153,0.00,0.00,0.00
1077,33.21374,5.43511,-93.92367,-1.33667,0.00806,-0.16821,0.00,0.00,0.00
1078,32.34351,4.90840,-93.64886,-1.41602,0.00537,-0.03418,0.00,0.00,0.00
1079,27.80153,8.48092,-97.30535,-1.38672,-0.04956,-0.08032,0.00,0.00,0.00
1080,26.40458,6.22901,-100.62596,-1.41919,-0.02710,-0.00928,0.00,0.00,0.00
1081,23.24427,4.99237,-102.41985,-1.42114,0.01685,-0.02173,0.00,0.00,0.00
1082,22.04580,3.84733,-103.38932,-1.39502,0.01270,-0.05127,0.00,0.00,0.00
1083,22.16794,3.48855,-103.36641,-1.34570,-0.03394,-0.07422,0.00,0.00,0.00
1084,20.68702,4.93893,-102.64122,-1.29639,-0.06665,-0.14771,0.00,0.00,0.00
1085,15.84733,7.50382,-101.26718,-1.24146,-0.14600,-0.20605,0.00,0.00,0.00
1086,11.87786,9.22901,-98.93894,-1.19800,-0.20020,-0.21021,0.00,0.00,0.00
1087,15.55725,7.06870,-89.82443,-1.15625,-0.09644,-0.15649,0.00,0.00,0.00
1088,22.18321,6.29008,-76.41222,-1.06982,0.03613,-0.11255,0.00,0.00,0.00
1089,29.15267,3.31298,-65.98474,-1.01221,-0.10767,-0.05737,0.00,0.00,0.00
1090,40.26717,-0.18321,-55.63359,-1.01563,-0.11157,-0.01416,0.00,0.00,0.00
1091,47.87786,-2.28244,-41.10687,-0.96924,0.05615,0.00659,0.00,0.00,0.00
1092,50.25954,-4.56489,-26.04580,-0.86816,0.14795,0.03076,0.00,0.00,0.00
1093,45.60305,-7.27481,-13.15267,-0.80737,0.17651,0.04810,0.00,0.00,0.00
1094,37.06107,-9.00763,-0.88550,-0.76416,0.19385,0.04712,0.00,0.00,0.00
1095,27.01527,-9.65649,10.66412,-0.74731,0.20850,0.04297,0.00,0.00,0.00
1096,13.69466,-10.42748,24.03817,-0.71777,0.23853,0.04785,0.00,0.00,0.00
1097,-0.01527,-11.04580,38.23664,-0.69019,0.24731,0.05908,0.00,0.00,0.00
1098,-12.54198,-12.08397,52.87023,-0.68750,0.22119,0.06763,0.00,0.00,0.00
1099,-20.92366,-12.93893,65.62596,-0.69580,0.18799,0.06812,0.00,0.00,0.00
1100,-27.55725,-15.00000,79.39695,-0.70386,0.15234,0.05737,0.00,0.00,0.00
1101,-31.45802,-16.67939,92.88550,-0.71753,0.13867,0.04858,0.00,0.00,0.00
1102,-35.60305,-17.95420,105.00764,-0.74146,0.13159,0.01855,0.00,0.00,0.00
1103,-39.83969,-18.77099,115.90077,-0.76538,0.12402,0.00171,0.00,0.00,0.00
1104,-43.90840,-19.80153,126.81680,-0.80322,0.10132,-0.00098,0.00,0.00,0.00
1105,-45.72519,-20.99237,136.45800,-0.83545,0.06396,-0.00732,0.00,0.00,0.00
1106,-46.12977,-22.45038,145.77099,-0.87402,0.04150,-0.02271,0.00,0.00,0.00
1107,-44.43511,-23.19847,154.29771,-0.90186,0.03540,-0.01685,0.00,0.00,0.00
1108,-42.67939,-23.63359,161.58015,-0.93848,0.00513,-0.02759,0.00,0.00,0.00
1109,-40.47328,-24.15267,168.41984,-0.95776,-0.03857,-0.02466,0.00,0.00,0.00
1110,-37.60305,-24.60305,174.30534,-0.98999,-0.06616,-0.03027,0.00,0.00,0.00
1111,-35.04580,-25.77863,180.10687,-1.03174,-0.06372,-0.03198,0.00,0.00,0.00
1112,-33.82443,-26.46565,184.66412,-1.06299,-0.04443,-0.03418,0.00,0.00,0.00
1113,-35.54198,-26.90076,188.00762,-1.09570,-0.04126,-0.04492,0.00,0.00,0.00
1114,-39.44275,-27.20611,189.33587,-1.12744,-0.05225,-0.04272,0.00,0.00,0.00
1115,-43.45801,-27.97710,189.38168,-1.16943,-0.07080,-0.04688,0.00,0.00,0.00
1116,-46.23664,-28.33588,189.06869,-1.20337,-0.08374,-0.04980,0.00,0.00,0.00
1117,-48.25191,-29.12214,188.02290,-1.24634,-0.08521,-0.05908,0.00,0.00,0.00
1118,-49.82443,-29.98473,185.78625,-1.28101,-0.10132,-0.05566,0.00,0.00,0.00
1119,-49.99237,-31.09924,181.91603,-1.32080,-0.16187,-0.04980,0.00,0.00,0.00
1120,-47.96947,-32.30534,175.05343,-1.33765,-0.22070,-0.05322,0.00,0.00,0.00
1121,-45.16794,-33.09160,166.93893,-1.34741,-0.19824,-0.08032,0.00,0.00,0.00
1122,-43.40458,-33.42748,158.09924,-1.36475,-0.16919,-0.07129,0.00,0.00,0.00
1123,-41.75572,-33.54198,147.23664,-1.34937,-0.17017,-0.07007,0.00,0.00,0.00
1124,-39.25191,-33.07633,134.05343,-1.28101,-0.22095,-0.07861,0.00,0.00,0.00
1125,-36.36641,-31.65649,121.19084,-1.22803,-0.25049,-0.10156,0.00,0.00,0.00
1126,-31.99237,-29.02290,106.05344,-1.15820,-0.28149,-0.12964,0.00,0.00,0.00
1127,-26.63359,-24.27481,90.58016,-1.09424,-0.29980,-0.16455,0.00,0.00,0.00
1128,-19.50382,-18.06107,77.06871,-1.00977,-0.32007,-0.19360,0.00,0.00,0.00
1129,-11.04580,-13.07634,63.44275,-0.97168,-0.35596,-0.19385,0.00,0.00,0.00
1130,-0.85496,-7.81679,46.70992,-0.93896,-0.38257,-0.19141,0.00,0.00,0.00
1131,8.37405,-2.61832,29.54199,-0.94849,-0.36084,-0.17603,0.00,0.00,0.00
1132,14.48092,1.37405,12.09924,-0.95996,-0.32642,-0.17017,0.00,0.00,0.00
1133,17.32825,3.67176,-3.51908,-0.96021,-0.27979,-0.13940,0.00,0.00,0.00
1134,17.47328,5.63359,-20.50382,-0.94409,-0.23340,-0.12939,0.00,0.00,0.00
1135,14.69466,7.35115,-35.50382,-0.93213,-0.18115,-0.13184,0.00,0.00,0.00
1136,10.99237,9.86260,-47.84733,-0.93164,-0.13574,-0.13306,0.00,0.00,0.00
1137,6.09924,12.97710,-57.34351,-0.93115,-0.08105,-0.15234,0.00,0.00,0.00
1138,1.42748,16.25954,-65.11450,-0.92725,-0.08276,-0.15698,0.00,0.00,0.00
1139,7.32061,14.39695,-54.59542,-1.03491,0.57642,-0.10107,0.00,0.00,0.00
1140,30.74809,5.12214,-17.19084,-1.21533,1.69287,0.19775,0.00,0.00,0.00
1141,23.58015,8.42748,-5.05344,-0.92651,1.21948,0.10962,0.00,0.00,0.00
1142,-4.63359,12.36641,-26.41222,-1.14551,0.40112,0.01685,0.00,0.00,0.00
1143,-22.46565,12.83206,-41.70992,-1.21753,0.17017,0.01099,0.00,0.00,0.00
1144,-28.22901,9.13740,-37.70992,-1.24365,0.63843,0.07495,0.00,0.00,0.00
1145,-43.15267,24.05344,-44.09923,-1.14258,0.53027,-0.11670,0.00,0.00,0.00
1146,-53.40458,31.84733,-55.61832,-1.15186,0.21362,-0.06665,0.00,0.00,0.00
1147,-49.73283,37.93893,-60.58015,-1.11743,0.03711,-0.00146,0.00,0.00,0.00
1148,-42.84733,44.67176,-60.01527,-1.06567,0.02905,-0.01392,0.00,0.00,0.00
1149,-35.35115,46.72519,-57.93893,-1.08472,-0.02539,0.05615,0.00,0.00,0.00
1150,-24.12214,43.91603,-57.37405,-1.10083,-0.10303,0.14917,0.00,0.00,0.00
1151,-8.97710,41.84733,-56.08397,-1.07056,-0.09595,0.11499,0.00,0.00,0.00
1152,7.41985,40.48855,-53.93893,-1.06836,-0.06689,0.04712,0.00,0.00,0.00
1153,24.88550,38.32824,-51.94656,-1.09351,-0.08496,0.03857,0.00,0.00,0.00
1154,35.38168,37.19847,-51.15267,-1.08911,-0.06982,-0.03540,0.00,0.00,0.00
1155,38.27481,36.49618,-49.67939,-1.10156,0.04688,-0.11084,0.00,0.00,0.00
1156,36.83969,35.61069,-47.35878,-1.07861,0.18164,-0.16284,0.00,0.00,0.00
1157,30.77099,34.68702,-45.54962,-1.01489,0.27637,-0.14160,0.00,0.00,0.00
1158,20.62595,33.25954,-44.36641,-0.97241,0.28125,-0.15039,0.00,0.00,0.00
1159,12.22901,32.48855,-43.34351,-0.96118,0.24585,-0.16113,0.00,0.00,0.00
1160,5.34351,32.09160,-41.64122,-0.98535,0.20605,-0.15796,0.00,0.00,0.00
1161,4.41985,30.15267,-40.08397,-1.01953,0.13745,-0.12061,0.00,0.00,0.00
1162,9.58779,29.21374,-39.38931,-1.03418,0.09253,-0.08765,0.00,0.00,0.00
1163,14.54962,28.50382,-38.85496,-1.03931,0.08838,-0.04297,0.00,0.00,0.00
1164,17.47328,28.69466,-38.36641,-1.03003,0.11719,-0.02173,0.00,0.00,0.00
1165,15.54962,28.87023,-39.03053,-1.04248,0.11792,-0.00195,0.00,0.00,0.00
1166,11.78626,29.41985,-39.80152,-1.04199,0.14771,-0.04468,0.00,0.00,0.00
1167,7.03053,30.41985,-40.16794,-1.03979,0.16553,-0.07739,0.00,0.00,0.00
1168,3.86260,30.08397,-40.84733,-1.02466,0.14063,-0.08691,0.00,0.00,0.00
1169,4.12214,29.12977,-41.00763,-1.01172,0.09009,-0.11035,0.00,0.00,0.00
1170,6.93893,27.71756,-40.21374,-1.01782,0.10205,-0.14063,0.00,0.00,0.00
1171,9.74046,26.48092,-39.83206,-1.01709,0.09473,-0.18213,0.00,0.00,0.00
1172,11.78626,24.88550,-38.64885,-1.02124,0.09570,-0.19482,0.00,0.00,0.00
1173,12.70229,23.04580,-37.77862,-1.00073,0.08643,-0.19800,0.00,0.00,0.00
1174,12.76336,20.84733,-36.49618,-1.01440,0.09644,-0.20532,0.00,0.00,0.00
1175,11.44275,19.01527,-35.74809,-1.01733,0.07129,-0.19165,0.00,0.00,0.00
1176,9.77863,17.05344,-35.41221,-1.00635,0.08301,-0.19141,0.00,0.00,0.00
1177,7.58779,15.95420,-34.04580,-1.01001,0.07153,-0.17065,0.00,0.00,0.00
1178,6.10687,15.61832,-32.33588,-1.01147,0.04126,-0.13989,0.00,0.00,0.00
1179,4.20611,15.22137,-29.96947,-1.01733,0.01050,-0.12183,0.00,0.00,0.00
1180,1.81679,15.20611,-27.97710,-1.02417,0.00684,-0.09888,0.00,0.00,0.00
1181,-0.64885,14.65649,-25.71756,-1.04346,0.02100,-0.13062,0.00,0.00,0.00
1182,-2.27481,14.36641,-24.19847,-1.02832,0.02026,-0.15283,0.00,0.00,0.00
1183,-1.93893,12.87786,-22.80153,-1.04297,0.01221,-0.14014,0.00,0.00,0.00
1184,0.22901,11.58015,-21.35878,-1.03711,-0.02319,-0.14844,0.00,0.00,0.00
1185,2.22137,11.34351,-18.87023,-1.03394,-0.01855,-0.15479,0.00,0.00,0.00
1186,3.64122,10.64122,-16.64122,-1.02710,-0.02051,-0.15869,0.00,0.00,0.00
1187,5.24427,10.60305,-14.45038,-1.01563,-0.03223,-0.16748,0.00,0.00,0.00
1188,8.94656,10.34351,-12.84733,-1.01733,-0.02930,-0.16187,0.00,0.00,0.00
1189,11.71756,9.81679,-11.42748,-1.01978,-0.01392,-0.17627,0.00,0.00,0.00
1190,11.80916,8.58779,-10.62595,-1.02734,0.00952,-0.19507,0.00,0.00,0.00
1191,10.14504,7.58015,-10.18321,-1.02124,0.01953,-0.19556,0.00,0.00,0.00
1192,7.83206,6.12977,-9.56488,-1.00879,0.01440,-0.19238,0.00,0.00,0.00
1193,7.01527,4.67176,-9.20611,-1.01025,-0.00073,-0.18188,0.00,0.00,0.00
1194,6.87023,3.93130,-7.93893,-1.00220,-0.01050,-0.18750,0.00,0.00,0.00
1195,8.20611,4.01527,-6.74809,-1.00635,-0.02881,-0.17944,0.00,0.00,0.00
1196,8.74046,3.83206,-5.53435,-1.01196,-0.01025,-0.16870,0.00,0.00,0.00
1197,7.19847,4.03817,-4.25954,-1.01147,0.00513,-0.17920,0.00,0.00,0.00
1198,4.83969,4.72519,-3.74046,-1.00464,0.00806,-0.19678,0.00,0.00,0.00
1199,3.02290,4.96947,-3.29771,-0.99634,0.00049,-0.20508,0.00,0.00,0.00
1200,2.22901,4.83969,-3.60305,-0.99780,0.00122,-0.21094,0.00,0.00,0.00
1201,2.48092,4.34351,-4.03817,-0.99951,0.01245,-0.21240,0.00,0.00,0.00
1202,2.16031,3.31298,-4.42748,-1.00830,-0.00317,-0.20093,0.00,0.00,0.00
1203,2.18321,3.18321,-4.87023,-1.00757,-0.00708,-0.18164,0.00,0.00,0.00
1204,1.70992,2.74046,-5.32061,-1.01099,-0.01147,-0.16260,0.00,0.00,0.00
1205,1.09160,2.29008,-6.09160,-1.03271,0.00415,-0.14600,0.00,0.00,0.00
1206,0.03053,0.82443,-7.11450,-1.05005,0.00610,-0.14111,0.00,0.00,0.00
1207,-1.25191,1.42748,-8.06870,-1.05298,0.00024,-0.15088,0.00,0.00,0.00
1208,-2.59542,2.08397,-8.25191,-1.02441,-0.00562,-0.16797,0.00,0.00,0.00
1209,-3.07634,2.54962,-8.36641,-1.00684,-0.01685,-0.17529,0.00,0.00,0.00
1210,-2.54198,2.45038,-8.55725,-1.01514,-0.03198,-0.16943,0.00,0.00,0.00
1211,-0.32061,0.70992,-7.80916,-1.03101,-0.05444,-0.18408,0.00,0.00,0.00
1212,1.83969,1.02290,-6.76336,-1.02417,-0.04590,-0.19067,0.00,0.00,0.00
1213,3.61832,1.03817,-5.47328,-1.02612,-0.05078,-0.17920,0.00,0.00,0.00
1214,4.61069,1.49618,-4.38168,-1.01025,-0.03027,-0.17188,0.00,0.00,0.00
1215,4.78626,1.90840,-3.42748,-1.01245,-0.03540,-0.17139,0.00,0.00,0.00
1216,4.23664,2.08397,-2.68702,-1.02368,-0.02930,-0.17847,0.00,0.00,0.00
1217,4.44275,1.50382,-2.66412,-1.02441,-0.02808,-0.18335,0.00,0.00,0.00
1218,4.16794,1.45802,-2.32061,-1.02563,-0.02979,-0.18213,0.00,0.00,0.00
1219,4.94656,1.06107,-2.26718,-1.01440,-0.03149,-0.19409,0.00,0.00,0.00
1220,5.27481,0.69466,-2.14504,-1.01221,-0.02930,-0.19604,0.00,0.00,0.00
1221,5.83969,0.05344,-2.16794,-1.01392,-0.02466,-0.19824,0.00,0.00,0.00
1222,5.83206,-0.66412,-2.63359,-1.01904,-0.01392,-0.19604,0.00,0.00,0.00
1223,4.90840,-1.12977,-3.38168,-1.02466,-0.00244,-0.19678,0.00,0.00,0.00
1224,4.10687,-1.70992,-4.05344,-1.01294,-0.01343,-0.19141,0.00,0.00,0.00
1225,3.12977,-2.05344,-5.01527,-1.02026,-0.00415,-0.18726,0.00,0.00,0.00
1226,2.48855,-2.22137,-5.54198,-1.01880,-0.01733,-0.18945,0.00,0.00,0.00
1227,2.20611,-2.15267,-5.90076,-1.01074,-0.02832,-0.17480,0.00,0.00,0.00
1228,1.34351,-2.50382,-5.87786,-1.01147,-0.02734,-0.18311,0.00,0.00,0.00
1229,-0.32824,-2.51145,-5.89313,-1.01343,-0.02515,-0.17065,0.00,0.00,0.00
1230,-2.12977,-2.57252,-6.07634,-1.00635,-0.02612,-0.18066,0.00,0.00,0.00
1231,-2.71756,-2.22137,-6.68702,-1.00806,-0.03662,-0.18945,0.00,0.00,0.00
1232,-0.93130,-2.48092,-6.72519,-1.01343,-0.03979,-0.18604,0.00,0.00,0.00
1233,1.55725,-2.14504,-6.44275,-1.01270,-0.04614,-0.17114,0.00,0.00,0.00
1234,2.89313,-2.10687,-6.19847,-1.02002,-0.05176,-0.17896,0.00,0.00,0.00
1235,2.68702,-2.66412,-5.59542,-1.02515,-0.04199,-0.17212,0.00,0.00,0.00
1236,1.19084,-3.43511,-5.68702,-1.03149,-0.02490,-0.17847,0.00,0.00,0.00
1237,-0.42748,-4.63359,-5.86260,-1.04297,-0.03052,-0.18823,0.00,0.00,0.00
1238,-0.98473,-5.77099,-6.49618,-1.03809,-0.01953,-0.19775,0.00,0.00,0.00
1239,-0.69466,-6.57252,-6.51145,-1.03613,-0.04004,-0.19556,0.00,0.00,0.00
1240,-0.39695,-7.70229,-5.91603,-1.03003,-0.05176,-0.17529,0.00,0.00,0.00
1241,-0.41221,-8.33588,-4.87786,-1.01855,-0.03882,-0.19922,0.00,0.00,0.00
1242,-0.51145,-8.85496,-4.46565,-1.01758,-0.03174,-0.18237,0.00,0.00,0.00
1243,-0.18321,-9.06870,-3.94656,-1.02368,-0.04199,-0.17554,0.00,0.00,0.00
1244,-0.03053,-9.12214,-3.08397,-1.02466,-0.04492,-0.18604,0.00,0.00,0.00
1245,0.27481,-9.30534,-2.12214,-1.00928,-0.05396,-0.18335,0.00,0.00,0.00
1246,1.16031,-9.00000,-1.38168,-1.00415,-0.06250,-0.18066,0.00,0.00,0.00
1247,2.15267,-8.44275,-0.03817,-1.00439,-0.07471,-0.16870,0.00,0.00,0.00
1248,3.42748,-7.64885,0.84733,-0.99951,-0.07251,-0.15845,0.00,0.00,0.00
1249,3.41985,-6.76336,1.55725,-0.98560,-0.05493,-0.14404,0.00,0.00,0.00
1250,2.12977,-6.01527,2.18321,-0.99512,-0.04688,-0.15991,0.00,0.00,0.00
1251,0.96947,-4.70229,2.30534,-0.97534,-0.04419,-0.16187,0.00,0.00,0.00
1252,1.77099,-3.80153,2.70229,-0.97803,-0.06494,-0.14136,0.00,0.00,0.00
1253,1.79389,-2.93893,3.68702,-0.98071,-0.05688,-0.14331,0.00,0.00,0.00
1254,1.18321,-2.19847,4.34351,-1.00220,-0.04907,-0.15527,0.00,0.00,0.00
1255,-0.80153,-1.91603,4.93130,-1.00903,-0.04614,-0.15454,0.00,0.00,0.00
1256,-2.57252,-1.58779,5.72519,-1.01563,-0.04077,-0.14453,0.00,0.00,0.00
1257,-5.16794,-1.41221,6.58779,-1.01904,-0.03223,-0.15332,0.00,0.00,0.00
1258,-7.01527,-1.33588,7.54198,-1.02441,-0.04443,-0.14917,0.00,0.00,0.00
1259,-8.45802,-1.33588,8.64885,-1.03809,-0.04468,-0.16870,0.00,0.00,0.00
1260,-9.06107,-1.58779,10.03053,-1.02295,-0.04517,-0.16479,0.00,0.00,0.00
1261,-9.00000,-2.08397,10.84733,-1.02246,-0.05176,-0.16357,0.00,0.00,0.00
1262,-9.25954,-2.12977,11.97710,-1.01855,-0.03979,-0.16821,0.00,0.00,0.00
1263,-9.70229,-2.40458,12.90076,-1.02271,-0.02319,-0.17017,0.00,0.00,0.00
1264,-9.65649,-2.38931,13.13740,-1.02856,-0.02515,-0.15869,0.00,0.00,0.00
1265,-9.38168,-2.45802,13.31298,-1.03076,-0.02979,-0.16187,0.00,0.00,0.00
1266,-8.83206,-1.90076,13.08397,-1.01831,-0.02197,-0.15942,0.00,0.00,0.00
1267,-8.10687,-1.16031,13.16794,-1.02563,-0.01099,-0.15186,0.00,0.00,0.00
1268,-7.28244,-0.58015,12.62595,-1.02417,-0.00806,-0.14844,0.00,0.00,0.00
1269,-7.06107,-0.16031,11.62595,-1.01489,-0.00073,-0.15381,0.00,0.00,0.00
1270,-6.64122,0.22137,10.25954,-1.00977,0.01489,-0.17065,0.00,0.00,0.00
1271,-6.94656,-0.07634,8.88550,-1.00952,0.00830,-0.16089,0.00,0.00,0.00
1272,-7.44275,-0.45802,6.87786,-1.01685,0.01733,-0.17212,0.00,0.00,0.00
1273,-8.58779,-1.16794,4.74046,-1.01392,0.01733,-0.17383,0.00,0.00,0.00
1274,-8.70992,-1.70229,2.19847,-1.01221,0.02051,-0.17065,0.00,0.00,0.00
1275,-8.01527,-2.03053,-0.29008,-1.00415,0.02051,-0.17285,0.00,0.00,0.00
1276,-7.45802,-2.06870,-2.64885,-1.00146,0.01196,-0.16797,0.00,0.00,0.00
1277,-7.06870,-2.42748,-4.87786,-1.01904,0.00684,-0.14209,0.00,0.00,0.00
1278,-5.48092,-3.37405,-6.64122,-1.02856,-0.00366,-0.12476,0.00,0.00,0.00
1279,-2.86260,-3.97710,-7.80916,-1.04395,-0.03418,-0.12305,0.00,0.00,0.00
1280,0.67939,-3.71756,-7.77099,-1.03052,-0.03516,-0.11694,0.00,0.00,0.00
1281,2.09160,-3.41985,-8.25191,-1.02222,-0.01733,-0.13013,0.00,0.00,0.00
1282,1.61069,-3.14504,-8.39695,-1.01270,-0.01074,-0.13696,0.00,0.00,0.00
1283,0.44275,-2.87023,-8.87023,-1.00024,-0.00610,-0.14087,0.00,0.00,0.00
1284,-1.77099,-3.00763,-8.71756,-1.00146,-0.00366,-0.13354,0.00,0.00,0.00
1285,-4.92366,-3.19084,-8.67939,-1.01929,-0.01270,-0.14331,0.00,0.00,0.00
1286,-6.32824,-3.81679,-8.79389,-1.02905,-0.01416,-0.15503,0.00,0.00,0.00
1287,-6.61832,-4.12977,-9.24427,-1.03174,-0.01538,-0.16675,0.00,0.00,0.00
1288,-6.00763,-4.05344,-9.34351,-1.02441,0.00000,-0.16943,0.00,0.00,0.00
1289,-5.14504,-4.81679,-9.94656,-1.01831,-0.02710,-0.16187,0.00,0.00,0.00
1290,-4.08397,-5.43511,-10.29008,-1.02295,-0.03296,-0.15796,0.00,0.00,0.00
1291,-3.48855,-5.92366,-11.07634,-1.02563,-0.02954,-0.15405,0.00,0.00,0.00
1292,-2.74046,-6.21374,-11.99237,-1.02393,-0.02271,-0.15356,0.00,0.00,0.00
1293,-2.51145,-6.15267,-13.65649,-1.02393,-0.02002,-0.14697,0.00,0.00,0.00
1294,-2.28244,-6.22901,-15.10687,-1.02100,-0.00464,-0.14355,0.00,0.00,0.00
1295,-2.65649,-5.77863,-16.67176,-1.01563,-0.01392,-0.13892,0.00,0.00,0.00
1296,-2.22901,-5.99237,-18.78626,-1.02026,-0.01807,-0.14233,0.00,0.00,0.00
1297,-1.47328,-5.82443,-20.99237,-1.02222,-0.02124,-0.13013,0.00,0.00,0.00
1298,-0.85496,-5.48092,-23.57252,-1.02002,-0.02319,-0.12671,0.00,0.00,0.00
1299,-0.72519,-5.36641,-26.10687,-1.02490,-0.02295,-0.13916,0.00,0.00,0.00
1300,-0.41221,-5.46565,-29.48855,-1.02026,-0.02466,-0.13013,0.00,0.00,0.00
1301,0.13740,-5.53435,-33.26717,-1.02100,-0.02100,-0.13550,0.00,0.00,0.00
1302,1.00763,-5.42748,-37.98473,-1.03149,-0.01587,-0.13306,0.00,0.00,0.00
1303,1.36641,-5.22901,-42.25954,-1.03442,-0.00073,-0.15161,0.00,0.00,0.00
1304,1.70992,-5.55725,-47.77862,-1.04395,-0.00928,-0.13599,0.00,0.00,0.00
1305,2.06870,-5.42748,-52.06107,-1.04590,-0.05591,-0.12476,0.00,0.00,0.00
1306,2.78626,-5.32824,-55.46565,-1.04102,-0.06201,-0.12207,0.00,0.00,0.00
1307,3.33588,-5.26718,-58.00763,-1.03711,-0.09131,-0.12500,0.00,0.00,0.00
1308,5.32824,-5.83206,-61.05344,-1.03198,-0.10669,-0.11841,0.00,0.00,0.00
1309,7.83969,-5.38168,-64.87023,-1.04932,-0.09033,-0.12085,0.00,0.00,0.00
1310,9.80153,-4.70992,-68.97710,-1.05029,-0.04517,-0.11499,0.00,0.00,0.00
1311,9.47328,-3.97710,-72.57252,-1.06128,-0.03418,-0.14136,0.00,0.00,0.00
1312,7.84733,-4.41985,-74.78627,-1.08447,-0.12134,-0.12427,0.00,0.00,0.00
1313,8.41221,-3.45038,-75.77100,-1.09790,-0.17212,-0.10913,0.00,0.00,0.00
1314,11.99237,-3.66412,-76.03817,-1.10034,-0.19336,-0.10474,0.00,0.00,0.00
1315,15.63359,-2.56489,-75.46566,-1.08032,-0.24194,-0.10352,0.00,0.00,0.00
1316,20.50382,-1.94656,-74.19084,-1.08569,-0.29297,-0.11230,0.00,0.00,0.00
1317,25.25954,0.93130,-70.61069,-1.10132,-0.28223,-0.13867,0.00,0.00,0.00
1318,30.60305,2.49618,-68.78627,-1.15186,-0.31079,-0.10352,0.00,0.00,0.00
1319,36.16030,3.42748,-68.01527,-1.21753,-0.27637,-0.11499,0.00,0.00,0.00
1320,40.77862,3.58779,-69.92367,-1.28247,-0.24756,-0.11938,0.00,0.00,0.00
1321,45.67939,1.19084,-74.63359,-1.39185,-0.12842,-0.07642,0.00,0.00,0.00
1322,45.99237,0.81679,-82.64122,-1.40234,-0.08105,-0.10791,0.00,0.00,0.00
1323,43.32061,-0.10687,-88.99237,-1.42236,-0.10156,-0.10913,0.00,0.00,0.00
1324,39.59542,-1.09160,-92.96947,-1.46997,-0.10205,-0.10742,0.00,0.00,0.00
1325,34.66412,-3.38931,-95.09924,-1.49097,-0.11353,-0.08154,0.00,0.00,0.00
1326,32.52672,-6.29771,-95.93130,-1.44580,-0.08667,-0.07935,0.00,0.00,0.00
1327,29.79389,-8.10687,-94.07633,-1.35596,-0.05493,-0.08276,0.00,0.00,0.00
1328,23.05344,-7.50382,-91.68702,-1.22803,-0.11987,-0.08667,0.00,0.00,0.00
1329,20.83970,-9.54198,-90.04580,-1.16382,-0.21289,-0.17261,0.00,0.00,0.00
1330,18.20611,-4.71756,-87.31298,-1.08936,-0.27075,-0.27710,0.00,0.00,0.00
1331,14.11450,-1.67176,-83.12977,-1.08252,-0.31982,-0.28076,0.00,0.00,0.00
1332,14.51145,2.15267,-78.34352,-0.99341,-0.37061,-0.33008,0.00,0.00,0.00
1333,16.98473,5.71756,-72.66413,-0.92139,-0.32324,-0.32397,0.00,0.00,0.00
1334,25.00763,6.96183,-58.08397,-0.85474,-0.04565,-0.22485,0.00,0.00,0.00
1335,34.79389,7.17557,-41.57252,-0.78564,0.06079,-0.11450,0.00,0.00,0.00
1336,41.79389,7.23664,-30.67176,-0.77466,-0.09399,-0.03394,0.00,0.00,0.00
1337,47.02290,3.93130,-18.19084,-0.81934,-0.00073,0.02344,0.00,0.00,0.00
1338,45.34351,1.58779,0.12214,-0.78345,0.19678,0.04956,0.00,0.00,0.00
1339,36.67939,0.57252,14.93130,-0.73535,0.22485,0.07568,0.00,0.00,0.00
1340,24.32061,0.28244,27.66412,-0.69067,0.19604,0.07324,0.00,0.00,0.00
1341,12.28244,0.32824,40.96183,-0.68359,0.19434,0.06396,0.00,0.00,0.00
1342,0.18321,0.38168,55.45801,-0.69043,0.17822,0.05371,0.00,0.00,0.00
1343,-9.77099,-0.51145,69.48855,-0.71509,0.16064,0.07910,0.00,0.00,0.00
1344,-17.48855,-1.94656,82.77100,-0.72339,0.15649,0.06006,0.00,0.00,0.00
1345,-24.36641,-2.48092,93.86260,-0.71753,0.13892,0.04590,0.00,0.00,0.00
1346,-29.88550,-2.23664,105.68702,-0.74194,0.12085,0.05957,0.00,0.00,0.00
1347,-35.50382,-1.91603,117.35878,-0.77612,0.08398,0.04785,0.00,0.00,0.00
1348,-37.32824,-2.52672,128.38168,-0.80542,0.05884,0.04077,0.00,0.00,0.00
1349,-37.20611,-3.51908,137.82443,-0.85083,0.02734,0.03027,0.00,0.00,0.00
1350,-36.09923,-5.00763,145.62596,-0.89014,0.01831,0.01782,0.00,0.00,0.00
1351,-34.72519,-5.91603,153.33587,-0.93286,0.01733,0.00879,0.00,0.00,0.00
1352,-33.13740,-7.06870,160.62596,-0.96729,0.00195,-0.01660,0.00,0.00,0.00
1353,-31.41222,-7.77863,167.49618,-1.00122,0.00171,-0.02539,0.00,0.00,0.00
1354,-30.34351,-7.83206,173.50381,-1.04419,-0.01636,-0.02661,0.00,0.00,0.00
1355,-28.83206,-8.69466,179.61068,-1.06738,-0.04492,-0.05566,0.00,0.00,0.00
1356,-27.51908,-9.73282,184.47328,-1.09692,-0.06152,-0.05005,0.00,0.00,0.00
1357,-26.87786,-11.30534,188.06869,-1.12280,-0.05469,-0.06982,0.00,0.00,0.00
1358,-28.38931,-12.62595,191.24427,-1.15820,-0.03760,-0.06177,0.00,0.00,0.00
1359,-31.82443,-14.61069,193.49618,-1.19800,-0.02441,-0.06665,0.00,0.00,0.00
1360,-35.85496,-16.23664,194.11450,-1.22339,-0.04175,-0.05640,0.00,0.00,0.00
1361,-40.75572,-17.93893,193.54199,-1.24634,-0.04102,-0.06372,0.00,0.00,0.00
1362,-45.70992,-19.67176,191.43511,-1.27319,-0.06909,-0.05859,0.00,0.00,0.00
1363,-49.29771,-21.86260,188.97709,-1.29565,-0.07422,-0.06738,0.00,0.00,0.00
1364,-52.03053,-24.09924,186.06106,-1.32813,-0.06079,-0.08203,0.00,0.00,0.00
1365,-53.93893,-26.75573,181.50381,-1.35913,-0.04858,-0.06323,0.00,0.00,0.00
1366,-53.53435,-29.64122,175.36640,-1.34399,-0.07764,-0.05762,0.00,0.00,0.00
1367,-52.20611,-31.81679,169.05343,-1.32153,-0.08521,-0.06592,0.00,0.00,0.00
1368,-50.96947,-34.06107,161.42747,-1.31396,-0.09937,-0.07813,0.00,0.00,0.00
1369,-48.40458,-36.89313,152.93130,-1.30225,-0.10010,-0.09521,0.00,0.00,0.00
1370,-43.67939,-36.15267,143.60305,-1.24976,-0.10303,-0.12866,0.00,0.00,0.00
1371,-39.26717,-34.01527,136.93130,-1.19751,-0.10791,-0.15576,0.00,0.00,0.00
1372,-29.98473,-30.97710,132.12213,-1.13208,-0.13892,-0.18188,0.00,0.00,0.00
1373,-14.06870,-27.16794,126.66413,-1.04858,-0.20190,-0.20898,0.00,0.00,0.00
1374,5.44275,-21.90840,118.12214,-0.96680,-0.25342,-0.23267,0.00,0.00,0.00
1375,23.97710,-16.15267,107.00764,-0.93799,-0.25269,-0.23682,0.00,0.00,0.00
1376,39.69466,-10.85496,92.81680,-0.94702,-0.23975,-0.23145,0.00,0.00,0.00
1377,52.61832,-5.51145,77.00764,-0.96167,-0.22144,-0.21191,0.00,0.00,0.00
1378,65.30535,-2.38168,61.58015,-0.95752,-0.15698,-0.12598,0.00,0.00,0.00
1379,72.83206,-2.11450,47.67176,-0.95679,-0.03955,-0.03589,0.00,0.00,0.00
1380,72.10688,-3.08397,36.93130,-0.95093,0.09277,-0.01685,0.00,0.00,0.00
1381,63.34351,-3.44275,25.92366,-0.92896,0.17920,-0.01733,0.00,0.00,0.00
1382,48.97710,-1.90840,14.61069,-0.89697,0.23340,-0.02734,0.00,0.00,0.00
1383,34.35115,-0.58779,5.38168,-0.89185,0.27002,-0.01025,0.00,0.00,0.00
1384,20.80153,1.11450,-1.44275,-0.88281,0.28076,0.00366,0.00,0.00,0.00
1385,8.29771,2.38931,-8.27481,-0.89600,0.27197,0.00635,0.00,0.00,0.00
1386,-2.69466,3.65649,-14.49618,-0.90161,0.24683,-0.00024,0.00,0.00,0.00
1387,-12.36641,4.95420,-21.64886,-0.91724,0.19238,-0.00684,0.00,0.00,0.00
1388,-19.11450,6.17557,-27.88550,-0.92798,0.16675,-0.03760,0.00,0.00,0.00
1389,-25.31298,7.70229,-33.06870,-0.94092,0.21533,-0.10718,0.00,0.00,0.00
1390,-30.03817,16.12214,-36.58779,-0.94360,0.09863,-0.21533,0.00,0.00,0.00
1391,-33.89313,16.06107,-47.98473,-1.06348,0.03516,-0.22876,0.00,0.00,0.00
1392,-24.07634,7.90840,-44.84733,-1.36841,0.64697,0.02222,0.00,0.00,0.00
1393,-6.90076,1.94656,-30.47328,-1.24243,1.04980,0.15698,0.00,0.00,0.00
1394,-17.27481,10.32061,-42.71755,-1.01318,0.43604,0.02808,0.00,0.00,0.00
1395,-31.45038,10.76336,-56.78626,-1.10986,0.23486,-0.02344,0.00,0.00,0.00
1396,-29.42748,13.55725,-55.36641,-1.21167,0.53711,-0.06616,0.00,0.00,0.00
1397,-30.84733,22.27481,-62.31298,-1.21973,0.30396,-0.02295,0.00,0.00,0.00
1398,-30.13741,25.93130,-69.77863,-1.21533,0.03906,0.10474,0.00,0.00,0.00
1399,-21.52672,28.16794,-70.97710,-1.10498,0.02954,0.11523,0.00,0.00,0.00
1400,-13.70992,31.87023,-67.61833,-1.05640,0.15161,0.09497,0.00,0.00,0.00
1401,-7.83969,32.89313,-63.99237,-1.03882,0.13110,0.09473,0.00,0.00,0.00
1402,-0.72519,33.38168,-60.90076,-1.00830,0.11182,0.00024,0.00,0.00,0.00
1403,7.93130,32.67176,-58.57252,-1.00684,0.16431,-0.05957,0.00,0.00,0.00
1404,15.80153,30.00763,-56.96183,-1.02173,0.18066,-0.09082,0.00,0.00,0.00
1405,19.51908,27.38931,-56.53435,-1.02295,0.20801,-0.13818,0.00,0.00,0.00
1406,18.71756,25.18321,-56.16794,-0.99463,0.30811,-0.19922,0.00,0.00,0.00
1407,12.41221,24.79389,-54.67939,-0.95264,0.40088,-0.26440,0.00,0.00,0.00
1408,8.01527,22.00763,-55.49618,-0.92896,0.37695,-0.27759,0.00,0.00,0.00
1409,4.83206,21.51908,-56.79389,-0.91406,0.36792,-0.27979,0.00,0.00,0.00
1410,3.37405,21.09160,-58.47328,-0.93604,0.35718,-0.25269,0.00,0.00,0.00
1411,0.82443,22.19847,-60.79389,-0.91357,0.33228,-0.26489,0.00,0.00,0.00
1412,-3.96947,24.80153,-63.63359,-0.94678,0.31396,-0.22656,0.00,0.00,0.00
1413,-3.90076,23.61069,-66.88550,-1.02100,0.24585,-0.12891,0.00,0.00,0.00
1414,-3.25191,25.61832,-68.48092,-0.99365,0.19360,-0.09839,0.00,0.00,0.00
1415,4.90840,22.83206,-71.74810,-1.06445,-0.08154,0.02393,0.00,0.00,0.00
1416,15.52672,22.12977,-74.55725,-1.12280,-0.10791,0.05884,0.00,0.00,0.00
1417,23.17557,24.35115,-70.56489,-1.11938,0.01587,0.02100,0.00,0.00,0.00
1418,22.55725,25.70992,-66.83969,-1.08545,0.10547,-0.00220,0.00,0.00,0.00
1419,18.03817,26.44275,-64.57252,-1.04541,0.08813,-0.03296,0.00,0.00,0.00
1420,12.35114,24.46565,-61.48855,-1.03760,0.10986,-0.06421,0.00,0.00,0.00
1421,9.58779,22.63359,-57.57252,-1.04150,0.05347,-0.09595,0.00,0.00,0.00
1422,9.19084,21.08397,-53.52672,-1.05225,0.03052,-0.12842,0.00,0.00,0.00
1423,11.44275,19.83970,-48.35878,-1.02686,0.02319,-0.15039,0.00,0.00,0.00
1424,14.25191,19.24427,-43.22901,-1.00073,0.00781,-0.13452,0.00,0.00,0.00
1425,17.09924,18.41222,-38.84733,-1.00000,0.02246,-0.13208,0.00,0.00,0.00
1426,16.68702,17.67176,-34.93130,-1.02002,0.06665,-0.14453,0.00,0.00,0.00
1427,14.45038,17.13741,-32.75572,-1.01660,0.07202,-0.15674,0.00,0.00,0.00
1428,11.20611,16.16794,-30.60305,-1.00659,0.06860,-0.17651,0.00,0.00,0.00
1429,9.63359,15.16794,-28.74809,-0.99463,0.03760,-0.18652,0.00,0.00,0.00
1430,10.54198,14.15267,-26.97710,-1.00439,0.04395,-0.17749,0.00,0.00,0.00
1431,10.72519,13.66412,-25.97710,-1.01050,0.04834,-0.16821,0.00,0.00,0.00
1432,10.23664,13.55725,-25.29771,-1.00439,0.05151,-0.17993,0.00,0.00,0.00
1433,9.43511,12.70992,-24.61069,-0.99805,0.04834,-0.17554,0.00,0.00,0.00
1434,8.28244,11.68702,-23.62595,-1.01733,0.03882,-0.17798,0.00,0.00,0.00
1435,9.54962,10.71756,-23.02290,-1.02148,0.01685,-0.17578,0.00,0.00,0.00
1436,11.36641,10.29771,-21.56489,-1.02344,0.00732,-0.16602,0.00,0.00,0.00
1437,12.62595,9.43511,-19.93893,-1.02173,0.00195,-0.16846,0.00,0.00,0.00
1438,12.57252,9.19847,-18.29008,-0.99927,0.00903,-0.18848,0.00,0.00,0.00
1439,13.39695,8.45802,-16.27481,-1.01245,0.00049,-0.19507,0.00,0.00,0.00
1440,14.39695,7.75573,-13.91603,-1.01147,-0.01904,-0.18896,0.00,0.00,0.00
1441,13.61069,7.05344,-11.34351,-1.00708,-0.01099,-0.17627,0.00,0.00,0.00
1442,10.71756,6.25954,-9.16794,-1.00977,0.00415,-0.17578,0.00,0.00,0.00
1443,10.11450,5.58779,-7.91603,-1.02026,0.00537,-0.19946,0.00,0.00,0.00
1444,12.91603,4.77099,-8.01527,-1.04858,0.04224,-0.17993,0.00,0.00,0.00
1445,11.46565,4.64885,-8.41985,-1.04224,0.03223,-0.16260,0.00,0.00,0.00
1446,9.12977,4.18321,-9.05344,-1.03735,0.03345,-0.17090,0.00,0.00,0.00
1447,6.43511,3.44275,-9.17557,-1.01929,0.05151,-0.19946,0.00,0.00,0.00
1448,4.48855,2.45038,-9.87023,-1.01221,0.02856,-0.19580,0.00,0.00,0.00
1449,3.41985,1.19847,-10.61832,-1.01758,0.03442,-0.21021,0.00,0.00,0.00
1450,3.03053,0.53435,-11.22137,-1.00000,0.01147,-0.21655,0.00,0.00,0.00
1451,2.13740,-0.38168,-11.46565,-0.99097,0.02515,-0.20776,0.00,0.00,0.00
1452,-0.07634,-1.41985,-11.93130,-0.99121,0.03516,-0.22192,0.00,0.00,0.00
1453,-2.27481,-2.87023,-13.12977,-0.99658,0.01733,-0.22021,0.00,0.00,0.00
1454,-3.04580,-3.45038,-13.67939,-1.01050,-0.00195,-0.20215,0.00,0.00,0.00
1455,-2.09924,-3.87786,-13.80916,-1.02100,-0.02686,-0.17920,0.00,0.00,0.00
1456,-1.37405,-3.93893,-14.12214,-1.02124,-0.03003,-0.15942,0.00,0.00,0.00
1457,-1.16031,-3.78626,-14.04580,-1.02710,-0.00684,-0.15674,0.00,0.00,0.00
1458,-2.62595,-3.93130,-14.42748,-1.01685,0.00317,-0.16968,0.00,0.00,0.00
1459,-3.84733,-2.98473,-14.42748,-1.02124,-0.01270,-0.15820,0.00,0.00,0.00
1460,-4.33588,-2.71756,-14.08397,-1.01978,-0.02271,-0.16040,0.00,0.00,0.00
1461,-4.27481,-2.64885,-13.61832,-1.01270,-0.04395,-0.16187,0.00,0.00,0.00
1462,-4.19847,-2.36641,-12.85496,-1.01538,-0.03320,-0.17310,0.00,0.00,0.00
1463,-3.16031,-2.84733,-12.40458,-1.01880,-0.04517,-0.16309,0.00,0.00,0.00
1464,-0.70992,-3.57252,-12.09160,-1.01611,-0.04980,-0.18628,0.00,0.00,0.00
1465,2.18321,-3.18321,-11.33588,-1.01392,-0.06421,-0.17407,0.00,0.00,0.00
1466,5.57252,-2.74046,-10.21374,-1.01270,-0.07861,-0.16650,0.00,0.00,0.00
1467,7.64885,-1.76336,-8.96947,-1.00635,-0.05322,-0.16455,0.00,0.00,0.00
1468,6.21374,-1.13740,-8.33588,-1.01123,-0.03467,-0.15503,0.00,0.00,0.00
1469,3.79389,-0.82443,-7.91603,-1.02417,-0.02344,-0.17529,0.00,0.00,0.00
1470,2.03817,0.12977,-8.03053,-1.02466,-0.02466,-0.18018,0.00,0.00,0.00
1471,1.38931,0.51145,-7.33588,-1.01807,-0.06860,-0.14819,0.00,0.00,0.00
1472,2.25954,1.31298,-5.48855,-1.01563,-0.06665,-0.14868,0.00,0.00,0.00
1473,3.15267,1.83969,-3.89313,-1.02686,-0.06787,-0.15991,0.00,0.00,0.00
1474,3.08397,2.00763,-2.89313,-1.02417,-0.06372,-0.16162,0.00,0.00,0.00
1475,2.06107,2.03817,-1.80916,-1.02100,-0.04956,-0.17505,0.00,0.00,0.00
1476,0.95420,1.86260,-1.31298,-1.02466,-0.03857,-0.16382,0.00,0.00,0.00
1477,-0.31298,1.31298,-1.10687,-1.02026,-0.03809,-0.17407,0.00,0.00,0.00
1478,-0.90076,0.79389,-0.92366,-1.01318,-0.04492,-0.17480,0.00,0.00,0.00
1479,-1.28244,0.16031,-1.43511,-1.01855,-0.04272,-0.17993,0.00,0.00,0.00
1480,-0.78626,-0.06870,-1.90076,-1.02051,-0.05029,-0.18945,0.00,0.00,0.00
1481,-0.09160,-0.57252,-2.01527,-1.02393,-0.04785,-0.18701,0.00,0.00,0.00
1482,1.01527,-0.61069,-2.25191,-1.02563,-0.05225,-0.18506,0.00,0.00,0.00
1483,2.32061,-0.88550,-2.51908,-1.01929,-0.06396,-0.16919,0.00,0.00,0.00
1484,3.14504,-0.57252,-2.74809,-1.00806,-0.05591,-0.16406,0.00,0.00,0.00
1485,4.67939,0.07634,-3.00000,-1.00269,-0.07544,-0.16431,0.00,0.00,0.00
1486,6.15267,1.29771,-2.86260,-1.01904,-0.07446,-0.14990,0.00,0.00,0.00
1487,6.19084,2.20611,-2.60305,-1.02173,-0.05933,-0.16235,0.00,0.00,0.00
1488,5.09924,2.22901,-2.95420,-1.01782,-0.03906,-0.17236,0.00,0.00,0.00
1489,1.93130,0.86260,-3.12977,-1.02637,0.00269,-0.19385,0.00,0.00,0.00
1490,-1.32824,-0.09160,-3.83206,-1.02466,-0.00977,-0.20264,0.00,0.00,0.00
1491,-3.39695,-2.22901,-4.19084,-1.03491,-0.03955,-0.20361,0.00,0.00,0.00
1492,-3.96183,-3.64885,-3.28244,-1.03979,-0.05835,-0.19727,0.00,0.00,0.00
1493,-4.19847,-4.90076,-2.09160,-1.02783,-0.06006,-0.18604,0.00,0.00,0.00
1494,-4.51145,-5.42748,-0.69466,-1.02539,-0.04834,-0.18091,0.00,0.00,0.00
1495,-5.84733,-5.69466,0.55725,-1.01465,-0.05981,-0.17773,0.00,0.00,0.00
1496,-6.13740,-6.48092,1.90840,-1.02661,-0.07178,-0.17676,0.00,0.00,0.00
1497,-4.41221,-7.03053,3.37405,-1.02710,-0.08154,-0.16064,0.00,0.00,0.00
1498,-1.70992,-6.85496,4.64122,-1.02954,-0.07495,-0.15967,0.00,0.00,0.00
1499,0.64122,-6.74809,5.50382,-1.02954,-0.07568,-0.16235,0.00,0.00,0.00
1500,2.09160,-6.74809,6.59542,-1.01733,-0.06323,-0.17163,0.00,0.00,0.00
1501,2.64122,-6.61832,7.67939,-1.01196,-0.05200,-0.16577,0.00,0.00,0.00
1502,2.67939,-6.61069,8.67939,-1.01563,-0.04395,-0.16553,0.00,0.00,0.00
1503,2.25191,-6.66412,9.22901,-1.01636,-0.04565,-0.16602,0.00,0.00,0.00
1504,2.99237,-6.74046,10.19847,-1.01025,-0.05688,-0.17236,0.00,0.00,0.00
1505,3.58015,-6.41221,10.74046,-1.00342,-0.04126,-0.18970,0.00,0.00,0.00
1506,3.45802,-5.67176,12.03817,-0.99487,-0.03101,-0.18701,0.00,0.00,0.00
1507,3.39695,-5.48092,12.98473,-1.00586,-0.04419,-0.18066,0.00,0.00,0.00
1508,3.36641,-5.06870,14.12214,-1.00659,-0.04883,-0.16187,0.00,0.00,0.00
1509,2.38931,-4.32824,15.40458,-1.01025,-0.04468,-0.15161,0.00,0.00,0.00
1510,0.78626,-3.85496,17.06870,-1.00806,-0.03027,-0.14771,0.00,0.00,0.00
1511,0.03817,-3.22137,18.41985,-1.00928,-0.04053,-0.15039,0.00,0.00,0.00
1512,0.10687,-2.76336,19.72519,-1.00049,-0.03955,-0.14502,0.00,0.00,0.00
1513,0.99237,-1.95420,21.21374,-0.99780,-0.04565,-0.14111,0.00,0.00,0.00
1514,2.15267,-1.16794,22.64886,-1.01245,-0.04541,-0.14355,0.00,0.00,0.00
1515,4.09924,-0.24427,24.03054,-1.01367,-0.04248,-0.15039,0.00,0.00,0.00
1516,5.96947,0.76336,25.45802,-1.02051,-0.04199,-0.14307,0.00,0.00,0.00
1517,7.57252,1.58779,26.80916,-1.02222,-0.02808,-0.13477,0.00,0.00,0.00
1518,7.64122,2.83969,27.28244,-1.01440,-0.00049,-0.12207,0.00,0.00,0.00
1519,5.41221,3.68702,26.56489,-1.01367,0.02563,-0.12256,0.00,0.00,0.00
1520,1.48855,4.64122,24.61832,-0.99780,0.04761,-0.12646,0.00,0.00,0.00
1521,-3.12977,5.09924,21.37405,-1.00317,0.08350,-0.13843,0.00,0.00,0.00
1522,-7.71756,5.56489,16.66412,-1.00415,0.10327,-0.15161,0.00,0.00,0.00
1523,-11.31298,5.09160,11.70229,-1.00317,0.10107,-0.15161,0.00,0.00,0.00
1524,-13.51908,4.40458,7.19084,-1.00293,0.10352,-0.16650,0.00,0.00,0.00
1525,-14.59542,3.45802,2.78626,-1.02173,0.10400,-0.18970,0.00,0.00,0.00
1526,-14.06870,1.96183,-1.47328,-1.04614,0.05859,-0.18701,0.00,0.00,0.00
1527,-11.60305,-0.00763,-4.51908,-1.05029,0.03931,-0.18311,0.00,0.00,0.00
1528,-7.54198,-1.72519,-6.56489,-1.04370,0.02856,-0.18994,0.00,0.00,0.00
1529,-3.60305,-3.85496,-8.47328,-1.03418,0.01465,-0.19360,0.00,0.00,0.00
1530,0.08397,-5.48092,-9.97710,-1.03076,0.02295,-0.19482,0.00,0.00,0.00
1531,4.32061,-7.20611,-11.03817,-1.02661,0.00732,-0.18213,0.00,0.00,0.00
1532,6.74046,-8.05344,-11.38168,-1.01807,0.00610,-0.17798,0.00,0.00,0.00
1533,8.46565,-8.49618,-11.69466,-1.01294,0.01196,-0.16772,0.00,0.00,0.00
1534,10.11450,-8.98473,-12.21374,-1.01172,0.00244,-0.17432,0.00,0.00,0.00
1535,11.78626,-8.78626,-12.37405,-1.01172,0.00220,-0.14258,0.00,0.00,0.00
1536,12.46565,-8.31298,-12.08397,-1.01880,0.00903,-0.12842,0.00,0.00,0.00
1537,11.17557,-7.63359,-12.03817,-1.01050,0.01074,-0.12354,0.00,0.00,0.00
1538,8.54198,-6.63359,-11.75572,-1.01001,0.00879,-0.11963,0.00,0.00,0.00
1539,5.09924,-6.09924,-11.47328,-1.01367,0.02246,-0.12720,0.00,0.00,0.00
1540,1.79389,-6.00763,-11.48092,-1.00903,0.00537,-0.14185,0.00,0.00,0.00
1541,0.55725,-5.75573,-11.39695,-1.00562,0.00195,-0.15991,0.00,0.00,0.00
1542,-1.01527,-6.55725,-10.87786,-1.00732,-0.01221,-0.16357,0.00,0.00,0.00
1543,-2.27481,-7.18321,-10.25191,-1.00293,-0.00024,-0.16309,0.00,0.00,0.00
1544,-1.54962,-7.49618,-10.21374,-1.01123,-0.01416,-0.16016,0.00,0.00,0.00
1545,0.22137,-7.93893,-10.55725,-1.02148,-0.02124,-0.15942,0.00,0.00,0.00
1546,1.73282,-8.51145,-11.40458,-1.02075,-0.00635,-0.14209,0.00,0.00,0.00
1547,1.86260,-8.55725,-12.23664,-1.03101,-0.00391,-0.13599,0.00,0.00,0.00
1548,1.05344,-8.60305,-13.49618,-1.03394,0.01099,-0.13672,0.00,0.00,0.00
1549,-0.26718,-8.29008,-15.33588,-1.02637,0.01440,-0.12524,0.00,0.00,0.00
1550,-2.38931,-8.32824,-17.19847,-1.02539,0.01782,-0.12695,0.00,0.00,0.00
1551,-4.87023,-7.80916,-19.72519,-1.01904,0.01050,-0.12744,0.00,0.00,0.00
1552,-7.62595,-7.51145,-22.28244,-1.01685,0.01172,-0.11230,0.00,0.00,0.00
1553,-10.83969,-7.80153,-24.99237,-1.01709,0.01807,-0.13062,0.00,0.00,0.00
1554,-12.22901,-7.34351,-27.89313,-1.01514,0.00732,-0.12891,0.00,0.00,0.00
1555,-12.23664,-6.98473,-31.21374,-1.02490,-0.01538,-0.12500,0.00,0.00,0.00
1556,-10.97710,-6.82443,-34.50382,-1.01904,-0.03687,-0.13037,0.00,0.00,0.00
1557,-8.81679,-6.41985,-37.75572,-1.01978,-0.04639,-0.13208,0.00,0.00,0.00
1558,-7.14504,-6.68702,-40.50382,-1.01978,-0.03931,-0.13696,0.00,0.00,0.00
1559,-5.05344,-6.54198,-44.12977,-1.02295,-0.05322,-0.13013,0.00,0.00,0.00
1560,-3.93130,-6.00763,-47.71755,-1.01685,-0.04834,-0.11914,0.00,0.00,0.00
1561,-3.43511,-5.61832,-51.64885,-1.02197,-0.04663,-0.11011,0.00,0.00,0.00
1562,-3.73282,-4.90840,-55.76336,-1.02051,-0.05566,-0.10718,0.00,0.00,0.00
1563,-3.90076,-4.22137,-60.54962,-1.02173,-0.06055,-0.08789,0.00,0.00,0.00
1564,-4.19847,-3.70229,-65.87023,-1.03345,-0.07178,-0.09595,0.00,0.00,0.00
1565,-3.88550,-2.90076,-71.52672,-1.03418,-0.07886,-0.09570,0.00,0.00,0.00
1566,-2.64122,-2.56489,-78.03817,-1.04126,-0.08838,-0.09790,0.00,0.00,0.00
1567,-0.08397,-1.92366,-84.77863,-1.06641,-0.10327,-0.09009,0.00,0.00,0.00
1568,3.49618,-1.70992,-92.25955,-1.08350,-0.10889,-0.08618,0.00,0.00,0.00
1569,7.91603,-1.57252,-98.88550,-1.11914,-0.12939,-0.09302,0.00,0.00,0.00
1570,13.92366,-1.48092,-104.53435,-1.13110,-0.16187,-0.10889,0.00,0.00,0.00
1571,19.06107,-0.48092,-108.03054,-1.13745,-0.16016,-0.12939,0.00,0.00,0.00
1572,25.21374,1.99237,-109.24428,-1.15625,-0.21118,-0.12671,0.00,0.00,0.00
1573,30.96947,4.80153,-107.35115,-1.21655,-0.25586,-0.12549,0.00,0.00,0.00
1574,34.99237,8.30534,-102.83206,-1.24561,-0.27881,-0.11865,0.00,0.00,0.00
1575,35.88550,12.32061,-98.47328,-1.32275,-0.29077,-0.15259,0.00,0.00,0.00
1576,35.80152,11.62595,-96.76336,-1.47607,-0.23462,-0.02148,0.00,0.00,0.00
1577,37.49618,8.89313,-102.57252,-1.51880,-0.13965,-0.05493,0.00,0.00,0.00
1578,34.88550,6.35878,-108.17558,-1.53687,-0.04053,-0.08398,0.00,0.00,0.00
1579,28.26718,3.74046,-112.15267,-1.49072,-0.01831,-0.13696,0.00,0.00,0.00
1580,19.08397,2.14504,-112.93894,-1.44629,-0.02197,-0.17212,0.00,0.00,0.00
1581,10.69466,2.35115,-111.66413,-1.38330,-0.07520,-0.17139,0.00,0.00,0.00
1582,7.48092,4.75573,-107.24428,-1.32324,-0.13232,-0.19849,0.00,0.00,0.00
1583,2.02290,7.64885,-101.57252,-1.24976,-0.22949,-0.24243,0.00,0.00,0.00
1584,-2.35878,9.36641,-98.92367,-1.18530,-0.34058,-0.26270,0.00,0.00,0.00
1585,-4.12214,10.63359,-96.34352,-1.12109,-0.43457,-0.26782,0.00,0.00,0.00
1586,-4.70992,14.03053,-92.01527,-1.04712,-0.42017,-0.29346,0.00,0.00,0.00
1587,-0.43511,16.92366,-84.11450,-0.96948,-0.41431,-0.27393,0.00,0.00,0.00
1588,11.16794,17.37405,-72.65649,-0.93115,-0.31958,-0.18506,0.00,0.00,0.00
1589,31.37405,16.47328,-57.59542,-0.85571,-0.30151,-0.11377,0.00,0.00,0.00
1590,51.54198,15.35878,-48.00000,-0.84521,-0.43506,-0.04932,0.00,0.00,0.00
1591,63.26717,9.78626,-33.71755,-0.86401,-0.19556,0.02686,0.00,0.00,0.00
1592,63.32061,5.25191,-19.16031,-0.78247,0.01855,0.06323,0.00,0.00,0.00
1593,50.68702,1.44275,-6.39695,-0.70288,0.10156,0.08862,0.00,0.00,0.00
1594,32.12977,-1.93130,4.36641,-0.64893,0.11792,0.09082,0.00,0.00,0.00
1595,12.45038,-4.15267,16.06870,-0.62622,0.12134,0.07935,0.00,0.00,0.00
1596,-6.12977,-5.64122,28.83206,-0.63477,0.10937,0.06616,0.00,0.00,0.00
1597,-21.32825,-7.81679,42.34351,-0.65161,0.07568,0.06689,0.00,0.00,0.00
1598,-30.41985,-10.07634,55.72519,-0.66919,0.02539,0.07324,0.00,0.00,0.00
1599,-34.24427,-12.51145,68.82443,-0.66992,0.00952,0.06470,0.00,0.00,0.00
1600,-36.32061,-13.45802,81.51908,-0.66675,0.02441,0.04810,0.00,0.00,0.00
1601,-37.83206,-14.41221,92.41222,-0.68945,0.04175,0.04297,0.00,0.00,0.00
1602,-40.48855,-16.06107,107.02291,-0.69800,0.06396,0.04004,0.00,0.00,0.00
1603,-41.99237,-18.04580,119.61069,-0.73169,0.07153,0.03394,0.00,0.00,0.00
1604,-43.04580,-20.48855,131.38931,-0.77734,0.05664,0.01562,0.00,0.00,0.00
1605,-42.17557,-22.23664,141.11450,-0.81689,0.03662,0.01440,0.00,0.00,0.00
1606,-39.26717,-24.51145,151.50381,-0.87427,0.00122,0.00806,0.00,0.00,0.00
1607,-35.20611,-27.02290,161.09924,-0.90186,-0.02539,-0.00610,0.00,0.00,0.00
1608,-30.28244,-29.54962,169.89312,-0.93677,-0.04199,-0.02026,0.00,0.00,0.00
1609,-26.24427,-31.16794,176.60305,-0.96167,-0.06152,-0.01611,0.00,0.00,0.00
1610,-21.98473,-32.52672,184.06106,-0.98706,-0.06836,-0.01025,0.00,0.00,0.00
1611,-18.90840,-32.98473,191.04580,-1.02197,-0.06006,-0.03198,0.00,0.00,0.00
1612,-17.63359,-32.96947,197.34350,-1.06079,-0.05396,-0.04370,0.00,0.00,0.00
1613,-17.90076,-33.08397,202.22137,-1.09033,-0.05078,-0.05176,0.00,0.00,0.00
1614,-19.32061,-33.18320,206.37403,-1.12036,-0.05713,-0.05981,0.00,0.00,0.00
1615,-20.91603,-32.90076,209.78625,-1.15698,-0.06689,-0.07373,0.00,0.00,0.00
1616,-23.19847,-32.75572,212.09924,-1.20776,-0.07324,-0.07935,0.00,0.00,0.00
1617,-26.02290,-32.87023,213.19084,-1.25024,-0.10327,-0.08521,0.00,0.00,0.00
1618,-28.31298,-33.01527,212.87786,-1.29907,-0.14526,-0.08838,0.00,0.00,0.00
1619,-28.64886,-34.65649,211.28244,-1.32568,-0.19702,-0.10742,0.00,0.00,0.00
1620,-25.93893,-36.39694,208.48091,-1.33594,-0.20532,-0.10352,0.00,0.00,0.00
1621,-22.20611,-37.48855,205.61068,-1.34741,-0.21289,-0.11523,0.00,0.00,0.00
1622,-18.64122,-38.96947,201.51144,-1.36206,-0.21313,-0.14209,0.00,0.00,0.00
1623,-14.88550,-39.17557,195.29771,-1.38501,-0.23267,-0.17236,0.00,0.00,0.00
1624,-10.82443,-38.54198,187.29006,-1.38843,-0.25098,-0.18823,0.00,0.00,0.00
1625,-6.99237,-37.20611,177.93130,-1.36182,-0.25732,-0.19604,0.00,0.00,0.00
1626,-2.87023,-35.51908,168.80915,-1.33057,-0.25464,-0.20166,0.00,0.00,0.00
1627,1.07634,-33.09160,156.88549,-1.26563,-0.26782,-0.21582,0.00,0.00,0.00
1628,5.30534,-29.03817,144.03816,-1.19946,-0.28564,-0.24463,0.00,0.00,0.00
1629,10.93893,-22.73283,129.67175,-1.12329,-0.32837,-0.28345,0.00,0.00,0.00
1630,19.87023,-14.91603,114.15267,-1.02051,-0.39917,-0.31274,0.00,0.00,0.00
1631,32.19847,-6.72519,96.31298,-0.94312,-0.44067,-0.33423,0.00,0.00,0.00
1632,44.93893,2.38931,76.53435,-0.89746,-0.43726,-0.30591,0.00,0.00,0.00
1633,54.18320,9.95420,56.07633,-0.90259,-0.40381,-0.26709,0.00,0.00,0.00
1634,58.93893,14.59542,34.33588,-0.90356,-0.37158,-0.19580,0.00,0.00,0.00
1635,59.50382,16.29008,13.80916,-0.92065,-0.35083,-0.14478,0.00,0.00,0.00
1636,54.77099,16.07634,-9.53435,-0.92603,-0.31152,-0.11304,0.00,0.00,0.00
1637,44.22901,15.55725,-32.63359,-0.93384,-0.25098,-0.09204,0.00,0.00,0.00
1638,30.05344,16.36641,-54.03816,-0.94336,-0.21167,-0.09717,0.00,0.00,0.00
1639,16.64886,17.68702,-71.38168,-0.95654,-0.17407,-0.09692,0.00,0.00,0.00
1640,3.37405,20.01527,-87.17558,-0.96997,-0.12598,-0.08569,0.00,0.00,0.00
1641,-8.05344,23.02290,-97.29008,-0.98071,0.00928,-0.13184,0.00,0.00,0.00
1642,9.64885,0.90076,-52.69466,-1.34082,1.77881,0.33374,0.00,0.00,0.00
1643,33.82443,-11.75572,23.52672,-1.25464,1.99994,0.44531,0.00,0.00,0.00
1644,-6.51145,19.22138,12.29008,-0.75659,1.25049,0.14014,0.00,0.00,0.00
1645,-100.81680,18.17557,-59.79389,-1.03467,-0.43140,0.04688,0.00,0.00,0.00
1646,-107.34352,13.83969,-50.98473,-1.20947,0.00879,0.14575,0.00,0.00,0.00
1647,-81.27481,12.28244,-42.67939,-1.30151,0.63672,0.02515,0.00,0.00,0.00
1648,-79.29771,31.93893,-50.34351,-1.14014,0.37695,-0.13403,0.00,0.00,0.00
1649,-75.02291,36.10687,-67.26718,-1.24731,-0.10059,0.11133,0.00,0.00,0.00
1650,-45.93130,38.15267,-72.32061,-1.14404,-0.22095,0.08643,0.00,0.00,0.00
1651,-17.84733,42.60305,-67.02291,-1.09521,-0.06738,0.01904,0.00,0.00,0.00
1652,-1.34351,39.25191,-63.60305,-1.10425,0.00854,0.07104,0.00,0.00,0.00
1653,7.55725,36.99237,-62.90076,-1.04224,0.06592,0.01367,0.00,0.00,0.00
1654,16.74809,30.96183,-61.14504,-1.07251,0.09082,-0.00049,0.00,0.00,0.00
1655,27.20611,25.82443,-57.80916,-1.07178,0.05933,-0.03223,0.00,0.00,0.00
1656,31.74046,24.57252,-52.45038,-1.03125,0.16870,-0.08789,0.00,0.00,0.00
1657,30.02290,24.53435,-47.77099,-1.00195,0.21533,-0.12329,0.00,0.00,0.00
1658,23.01527,22.95420,-45.58015,-0.97461,0.26563,-0.13452,0.00,0.00,0.00
1659,16.80153,22.48855,-43.31298,-0.97314,0.28247,-0.13110,0.00,0.00,0.00
1660,11.80153,22.60305,-41.45801,-0.97241,0.25317,-0.12158,0.00,0.00,0.00
1661,8.01527,23.49618,-39.65649,-0.96313,0.23804,-0.12256,0.00,0.00,0.00
1662,5.70229,23.87023,-37.75572,-0.96753,0.25146,-0.11279,0.00,0.00,0.00
1663,4.83969,22.74046,-36.87786,-0.98120,0.21338,-0.10815,0.00,0.00,0.00
1664,4.49618,22.27481,-36.72519,-0.99219,0.17456,-0.11646,0.00,0.00,0.00
1665,-0.87023,24.83206,-38.49618,-1.01929,0.13184,-0.21094,0.00,0.00,0.00
1666,-1.66412,21.93893,-40.82443,-1.10474,0.10254,-0.13672,0.00,0.00,0.00
